File: data/thermal_properties/102323_9_PEGMEA_1_PEGDA_0_none_0_none_2.txt
Filename	10-23-23-pegda-pegmea-0a380-0litfsi
Instrument name	DSC2A-01583 (172.23.160.11)
Operator	JJS
rundate	10/7/2024
Sample name	10-23-23-pegda-pegmea-0a380-0litfsi
proceduresegments	Ramp 5.00 °C/min to 120.00 °C; Ramp 5.00 °C/min to -100.00 °C; Ramp 5.00 °C/min to 120.00 °C; Ramp 5.00 °C/min to -100.00 °C; Ramp 5.00 °C/min to 120.00 °C
[step]
Ramp 5.00 °C/min to -100.00 °C
Time	Temperature	Heat Flow (Normalized)
min	°C	W/g
107.00	119.32	-0.188
107.03	119.43	-0.188
107.07	119.61	-0.188
107.09	119.66	-0.199
107.12	119.67	-0.205
107.15	119.64	-0.184
107.19	119.57	-0.138
107.21	119.51	-0.105
107.25	119.41	-0.067
107.27	119.33	-0.038
107.30	119.23	-0.014
107.33	119.10	0.014
107.36	118.98	0.034
107.38	118.90	0.045
107.43	118.70	0.067
107.45	118.60	0.075
107.49	118.43	0.089
107.51	118.31	0.095
107.54	118.16	0.102
107.57	118.01	0.108
107.60	117.86	0.112
107.63	117.75	0.115
107.65	117.62	0.118
107.70	117.41	0.121
107.72	117.29	0.123
107.75	117.14	0.124
107.78	117.01	0.125
107.81	116.86	0.126
107.84	116.69	0.127
107.87	116.56	0.128
107.90	116.39	0.128
107.93	116.25	0.128
107.96	116.12	0.129
108.00	115.93	0.129
108.02	115.81	0.129
108.05	115.67	0.130
108.08	115.52	0.130
108.11	115.38	0.130
108.14	115.20	0.130
108.17	115.07	0.131
108.23	114.75	0.131
108.19	114.95	0.131
108.25	114.65	0.131
108.30	114.45	0.131
108.33	114.30	0.131
108.35	114.16	0.131
108.38	114.01	0.132
108.42	113.83	0.132
108.44	113.74	0.132
108.47	113.58	0.132
108.50	113.43	0.132
108.53	113.28	0.132
108.56	113.10	0.132
108.60	112.95	0.132
108.62	112.81	0.132
108.65	112.66	0.132
108.68	112.54	0.132
108.70	112.40	0.132
108.74	112.22	0.132
108.77	112.09	0.132
108.80	111.91	0.132
108.83	111.77	0.133
108.86	111.60	0.133
108.90	111.44	0.133
108.92	111.31	0.133
108.95	111.19	0.133
108.98	111.02	0.133
109.01	110.85	0.133
109.04	110.71	0.133
109.07	110.57	0.133
109.10	110.41	0.133
109.13	110.27	0.133
109.16	110.11	0.133
109.20	109.94	0.133
109.22	109.84	0.133
109.25	109.67	0.133
109.28	109.53	0.133
109.31	109.35	0.133
109.34	109.22	0.133
109.36	109.10	0.133
109.41	108.90	0.133
109.44	108.75	0.133
109.46	108.65	0.133
109.50	108.45	0.133
109.53	108.31	0.133
109.55	108.19	0.133
109.58	108.01	0.133
109.61	107.87	0.133
109.64	107.71	0.133
109.68	107.56	0.133
109.71	107.37	0.133
109.74	107.26	0.133
109.76	107.12	0.133
109.79	106.98	0.133
109.82	106.84	0.133
109.85	106.66	0.133
109.88	106.52	0.133
109.91	106.36	0.133
109.94	106.21	0.133
109.98	106.06	0.133
110.00	105.91	0.133
110.02	105.81	0.133
110.06	105.61	0.133
110.09	105.50	0.133
110.13	105.30	0.133
110.15	105.19	0.133
110.19	105.01	0.133
110.21	104.87	0.133
110.24	104.73	0.133
110.27	104.59	0.132
110.30	104.42	0.132
110.34	104.26	0.132
110.36	104.12	0.132
110.39	104.01	0.132
110.42	103.82	0.132
110.45	103.67	0.132
110.49	103.51	0.132
110.51	103.37	0.132
110.54	103.26	0.132
110.57	103.09	0.132
110.60	102.95	0.132
110.63	102.77	0.132
110.66	102.62	0.132
110.69	102.47	0.132
110.73	102.31	0.132
110.76	102.14	0.132
110.78	102.02	0.132
110.81	101.88	0.132
110.84	101.72	0.132
110.88	101.54	0.132
110.90	101.44	0.132
110.93	101.27	0.132
110.96	101.15	0.132
110.99	100.98	0.132
111.02	100.83	0.132
111.04	100.73	0.132
111.08	100.54	0.132
111.11	100.37	0.132
111.15	100.19	0.132
111.18	100.06	0.132
111.21	99.88	0.132
111.23	99.77	0.132
111.26	99.62	0.132
111.29	99.47	0.132
111.31	99.36	0.132
111.35	99.19	0.132
111.39	98.98	0.132
111.41	98.88	0.132
111.44	98.73	0.132
111.47	98.57	0.132
111.50	98.45	0.132
111.54	98.26	0.132
111.56	98.14	0.132
111.60	97.95	0.132
111.62	97.82	0.132
111.65	97.69	0.132
111.68	97.54	0.132
111.70	97.44	0.132
111.75	97.21	0.132
111.78	97.05	0.132
111.80	96.93	0.132
111.83	96.79	0.132
111.86	96.62	0.132
111.90	96.46	0.131
111.93	96.31	0.131
111.95	96.17	0.131
111.98	96.04	0.131
112.01	95.87	0.131
112.04	95.73	0.131
112.06	95.61	0.131
112.10	95.43	0.131
112.13	95.28	0.131
112.16	95.12	0.131
112.19	94.98	0.131
112.23	94.80	0.131
112.25	94.71	0.131
112.28	94.52	0.131
112.32	94.36	0.131
112.34	94.23	0.131
112.37	94.09	0.131
112.41	93.90	0.131
112.43	93.79	0.131
112.46	93.62	0.131
112.49	93.49	0.131
112.52	93.33	0.131
112.55	93.16	0.131
112.58	93.03	0.131
112.61	92.88	0.131
112.64	92.76	0.131
112.68	92.56	0.131
112.70	92.41	0.131
112.73	92.31	0.131
112.76	92.11	0.131
112.79	92.01	0.131
112.83	91.81	0.131
112.85	91.69	0.131
112.89	91.52	0.131
112.91	91.36	0.131
112.94	91.23	0.131
112.98	91.07	0.131
113.00	90.92	0.131
113.04	90.76	0.131
113.06	90.64	0.131
113.10	90.46	0.131
113.13	90.32	0.131
113.15	90.17	0.131
113.18	90.02	0.131
113.22	89.83	0.131
113.25	89.72	0.131
113.27	89.61	0.131
113.30	89.43	0.131
113.34	89.27	0.131
113.37	89.10	0.131
113.40	88.97	0.131
113.43	88.82	0.131
113.45	88.67	0.131
113.49	88.52	0.131
113.52	88.34	0.131
113.58	88.04	0.131
113.53	88.29	0.131
113.59	87.99	0.131
113.64	87.76	0.131
113.66	87.64	0.131
113.69	87.50	0.131
113.72	87.33	0.131
113.75	87.21	0.131
113.78	87.03	0.131
113.81	86.89	0.131
113.85	86.72	0.131
113.88	86.54	0.131
113.90	86.42	0.131
113.93	86.30	0.131
113.96	86.14	0.130
114.00	85.96	0.134
114.03	85.82	0.134
114.04	85.73	0.134
114.08	85.54	0.133
114.11	85.39	0.133
114.14	85.25	0.132
114.17	85.10	0.132
114.19	84.98	0.132
114.24	84.75	0.132
114.26	84.64	0.132
114.29	84.49	0.132
114.33	84.31	0.132
114.35	84.17	0.132
114.39	84.01	0.132
114.41	83.87	0.132
114.44	83.74	0.132
114.47	83.58	0.132
114.50	83.44	0.132
114.53	83.29	0.132
114.56	83.15	0.132
114.59	82.98	0.132
114.62	82.84	0.132
114.65	82.70	0.132
114.68	82.55	0.132
114.71	82.38	0.132
114.74	82.23	0.131
114.77	82.10	0.131
114.80	81.96	0.131
114.83	81.79	0.131
114.87	81.60	0.131
114.89	81.49	0.131
114.92	81.35	0.131
114.96	81.16	0.131
114.98	81.03	0.131
115.02	80.85	0.131
115.04	80.75	0.131
115.07	80.59	0.131
115.10	80.45	0.131
115.14	80.27	0.131
115.16	80.15	0.131
115.19	80.01	0.131
115.22	79.85	0.131
115.25	79.67	0.131
115.29	79.51	0.131
115.32	79.36	0.131
115.34	79.24	0.131
115.38	79.07	0.131
115.40	78.94	0.131
115.43	78.78	0.130
115.46	78.65	0.130
115.49	78.50	0.130
115.52	78.34	0.130
115.55	78.21	0.130
115.58	78.03	0.130
115.61	77.89	0.130
115.64	77.75	0.130
115.68	77.57	0.130
115.70	77.44	0.130
115.74	77.28	0.130
115.76	77.14	0.130
115.79	76.99	0.130
115.82	76.84	0.130
115.86	76.66	0.130
115.88	76.54	0.130
115.91	76.39	0.130
115.94	76.24	0.130
115.97	76.08	0.130
116.00	75.94	0.130
116.04	75.77	0.130
116.06	75.64	0.130
116.09	75.49	0.130
116.12	75.37	0.130
116.15	75.21	0.130
116.18	75.04	0.130
116.21	74.92	0.130
116.25	74.72	0.130
116.27	74.59	0.130
116.32	74.34	0.130
116.29	74.51	0.130
116.35	74.21	0.130
116.39	74.02	0.130
116.43	73.81	0.130
116.46	73.67	0.130
116.48	73.55	0.130
116.51	73.40	0.130
116.55	73.22	0.130
116.57	73.09	0.130
116.60	72.98	0.130
116.63	72.79	0.130
116.66	72.64	0.130
116.69	72.49	0.130
116.72	72.34	0.130
116.75	72.20	0.129
116.78	72.04	0.129
116.81	71.88	0.129
116.84	71.75	0.129
116.88	71.55	0.129
116.90	71.45	0.129
116.93	71.31	0.129
116.96	71.17	0.129
116.99	70.99	0.129
117.02	70.86	0.129
117.04	70.75	0.129
117.08	70.55	0.129
117.10	70.43	0.129
117.14	70.24	0.129
117.18	70.08	0.129
117.20	69.96	0.129
117.24	69.77	0.129
117.26	69.65	0.129
117.30	69.47	0.129
117.32	69.35	0.129
117.35	69.18	0.129
117.38	69.06	0.129
117.41	68.89	0.129
117.44	68.74	0.129
117.47	68.59	0.129
117.50	68.45	0.129
117.53	68.29	0.129
117.56	68.14	0.129
117.59	68.01	0.129
117.62	67.84	0.129
117.65	67.73	0.129
117.68	67.57	0.129
117.72	67.37	0.129
117.75	67.23	0.129
117.77	67.10	0.129
117.80	66.97	0.129
117.83	66.82	0.129
117.86	66.65	0.129
117.89	66.51	0.129
117.92	66.34	0.129
117.95	66.18	0.129
117.98	66.05	0.129
118.01	65.89	0.129
118.04	65.75	0.129
118.07	65.59	0.129
118.10	65.47	0.129
118.14	65.28	0.129
118.16	65.15	0.129
118.19	65.03	0.129
118.23	64.82	0.129
118.25	64.71	0.129
118.28	64.54	0.129
118.31	64.39	0.129
118.35	64.23	0.129
118.37	64.13	0.129
118.40	63.94	0.129
118.43	63.79	0.129
118.46	63.64	0.129
118.49	63.50	0.129
118.53	63.34	0.129
118.55	63.22	0.129
118.58	63.04	0.129
118.61	62.89	0.129
118.64	62.75	0.129
118.66	62.64	0.129
118.70	62.44	0.129
118.74	62.26	0.129
118.76	62.14	0.129
118.79	62.02	0.129
118.82	61.85	0.129
118.85	61.70	0.129
118.88	61.55	0.129
118.91	61.39	0.129
118.94	61.26	0.129
118.97	61.11	0.129
118.99	61.00	0.129
119.03	60.80	0.129
119.07	60.61	0.129
119.09	60.53	0.129
119.12	60.35	0.129
119.15	60.20	0.129
119.19	60.03	0.129
119.21	59.90	0.129
119.24	59.76	0.129
119.27	59.60	0.129
119.30	59.45	0.129
119.33	59.32	0.129
119.36	59.17	0.128
119.39	59.01	0.128
119.42	58.85	0.128
119.45	58.71	0.128
119.49	58.54	0.128
119.52	58.37	0.128
119.54	58.28	0.128
119.57	58.13	0.128
119.60	57.96	0.128
119.63	57.82	0.128
119.66	57.65	0.128
119.69	57.53	0.128
119.73	57.34	0.128
119.75	57.19	0.128
119.78	57.07	0.128
119.81	56.90	0.128
119.84	56.76	0.128
119.87	56.62	0.128
119.90	56.46	0.128
119.94	56.28	0.128
119.96	56.18	0.128
120.00	55.99	0.128
120.03	55.84	0.128
120.05	55.73	0.128
120.09	55.54	0.128
120.11	55.41	0.128
120.15	55.23	0.128
120.18	55.09	0.128
120.21	54.92	0.128
120.23	54.82	0.128
120.26	54.64	0.128
120.29	54.50	0.128
120.32	54.35	0.128
120.35	54.21	0.128
120.38	54.07	0.128
120.41	53.89	0.128
120.45	53.73	0.128
120.47	53.61	0.128
120.50	53.46	0.128
120.52	53.36	0.128
120.56	53.16	0.128
120.59	53.00	0.128
120.62	52.86	0.128
120.65	52.70	0.128
120.69	52.54	0.128
120.71	52.41	0.128
120.74	52.27	0.128
120.77	52.12	0.128
120.80	51.96	0.128
120.83	51.82	0.128
120.86	51.65	0.128
120.89	51.50	0.128
120.92	51.35	0.128
120.95	51.22	0.128
120.98	51.09	0.128
121.01	50.90	0.128
121.04	50.77	0.128
121.07	50.62	0.128
121.10	50.48	0.128
121.13	50.32	0.128
121.16	50.15	0.128
121.19	50.00	0.128
121.23	49.85	0.128
121.25	49.70	0.128
121.29	49.55	0.128
121.31	49.40	0.128
121.34	49.25	0.128
121.36	49.16	0.128
121.40	48.95	0.128
121.43	48.80	0.128
121.46	48.68	0.128
121.50	48.49	0.128
121.52	48.36	0.128
121.55	48.22	0.128
121.58	48.09	0.128
121.61	47.91	0.128
121.64	47.76	0.128
121.68	47.59	0.128
121.70	47.46	0.128
121.74	47.30	0.128
121.76	47.16	0.128
121.79	47.01	0.128
121.82	46.86	0.128
121.85	46.72	0.128
121.89	46.52	0.128
121.91	46.43	0.128
121.94	46.27	0.128
121.97	46.11	0.128
122.00	45.97	0.128
122.03	45.84	0.128
122.06	45.65	0.127
122.09	45.52	0.127
122.12	45.37	0.127
122.15	45.24	0.127
122.18	45.06	0.127
122.21	44.92	0.127
122.25	44.75	0.127
122.27	44.62	0.127
122.30	44.47	0.127
122.34	44.30	0.127
122.36	44.16	0.127
122.40	43.98	0.127
122.42	43.88	0.127
122.45	43.73	0.127
122.48	43.56	0.127
122.51	43.41	0.127
122.54	43.26	0.127
122.57	43.14	0.127
122.60	42.98	0.127
122.64	42.80	0.127
122.66	42.68	0.127
122.69	42.55	0.127
122.72	42.36	0.127
122.75	42.25	0.127
122.78	42.07	0.127
122.81	41.94	0.127
122.85	41.75	0.127
122.88	41.59	0.127
122.90	41.47	0.127
122.94	41.30	0.127
122.96	41.16	0.127
122.99	41.03	0.127
123.02	40.90	0.127
123.06	40.69	0.127
123.09	40.54	0.127
123.11	40.42	0.127
123.14	40.28	0.127
123.17	40.11	0.127
123.21	39.93	0.127
123.23	39.82	0.127
123.26	39.69	0.127
123.30	39.50	0.127
123.32	39.36	0.127
123.35	39.21	0.127
123.39	39.01	0.127
123.45	38.71	0.127
123.42	38.89	0.127
123.38	39.10	0.127
123.50	38.45	0.127
123.53	38.32	0.127
123.55	38.21	0.127
123.59	38.06	0.127
123.62	37.87	0.127
123.65	37.75	0.127
123.68	37.57	0.127
123.72	37.38	0.127
123.74	37.30	0.127
123.77	37.13	0.127
123.80	36.96	0.127
123.83	36.83	0.127
123.87	36.64	0.127
123.90	36.51	0.127
123.92	36.37	0.127
123.95	36.21	0.127
123.98	36.07	0.127
124.01	35.91	0.127
124.04	35.78	0.127
124.08	35.61	0.127
124.10	35.51	0.127
124.13	35.33	0.127
124.16	35.17	0.127
124.20	34.99	0.127
124.22	34.88	0.127
124.25	34.71	0.127
124.28	34.58	0.127
124.31	34.42	0.127
124.35	34.26	0.127
124.37	34.13	0.127
124.40	33.97	0.127
124.43	33.83	0.127
124.46	33.69	0.127
124.49	33.54	0.127
124.52	33.39	0.127
124.56	33.17	0.127
124.58	33.09	0.127
124.61	32.92	0.127
124.64	32.77	0.127
124.68	32.61	0.127
124.71	32.43	0.127
124.73	32.34	0.127
124.76	32.16	0.127
124.79	32.02	0.127
124.82	31.90	0.127
124.85	31.74	0.127
124.89	31.55	0.127
124.92	31.40	0.127
124.97	31.15	0.127
124.93	31.32	0.127
124.99	31.02	0.127
125.02	30.87	0.127
125.06	30.68	0.127
125.09	30.54	0.127
125.12	30.38	0.127
125.15	30.25	0.127
125.18	30.10	0.127
125.21	29.94	0.127
125.24	29.79	0.127
125.28	29.60	0.127
125.30	29.47	0.127
125.34	29.30	0.127
125.36	29.17	0.127
125.40	28.99	0.127
125.42	28.89	0.127
125.45	28.71	0.127
125.49	28.56	0.127
125.51	28.42	0.127
125.54	28.28	0.127
125.57	28.13	0.127
125.60	27.97	0.127
125.63	27.82	0.127
125.66	27.66	0.127
125.69	27.53	0.127
125.72	27.39	0.127
125.75	27.24	0.127
125.78	27.07	0.127
125.81	26.91	0.127
125.84	26.77	0.127
125.88	26.59	0.127
125.90	26.51	0.127
125.94	26.31	0.127
125.96	26.20	0.127
126.00	26.01	0.127
126.02	25.89	0.127
126.04	25.81	0.127
126.08	25.59	0.127
126.11	25.43	0.127
126.14	25.27	0.127
126.17	25.13	0.127
126.19	25.02	0.126
126.23	24.82	0.126
126.26	24.67	0.126
126.29	24.56	0.126
126.32	24.37	0.126
126.35	24.22	0.126
126.37	24.15	0.126
126.41	23.92	0.126
126.48	23.62	0.126
126.45	23.77	0.126
126.50	23.47	0.126
126.53	23.33	0.126
126.56	23.18	0.126
126.60	23.01	0.126
126.62	22.88	0.126
126.65	22.75	0.126
126.69	22.56	0.126
126.72	22.41	0.126
126.75	22.27	0.126
126.77	22.15	0.126
126.81	21.96	0.126
126.83	21.83	0.126
126.86	21.70	0.126
126.87	21.64	0.126
126.92	21.38	0.126
126.98	21.08	0.126
126.95	21.24	0.126
127.01	20.94	0.126
127.05	20.75	0.126
127.07	20.65	0.126
127.10	20.47	0.126
127.13	20.36	0.126
127.16	20.17	0.126
127.19	20.06	0.126
127.22	19.89	0.126
127.25	19.75	0.126
127.28	19.60	0.126
127.31	19.43	0.126
127.34	19.28	0.126
127.38	19.10	0.126
127.39	19.03	0.126
127.43	18.84	0.126
127.46	18.69	0.126
127.49	18.56	0.126
127.53	18.36	0.126
127.55	18.24	0.126
127.59	18.06	0.126
127.60	17.97	0.126
127.64	17.80	0.126
127.67	17.63	0.126
127.70	17.50	0.126
127.73	17.34	0.126
127.76	17.19	0.126
127.79	17.06	0.126
127.82	16.89	0.126
127.85	16.73	0.126
127.88	16.61	0.126
127.91	16.42	0.126
127.95	16.27	0.126
127.98	16.12	0.126
128.01	15.96	0.126
128.04	15.81	0.126
128.06	15.68	0.126
128.09	15.54	0.126
128.12	15.39	0.126
128.15	15.24	0.126
128.19	15.07	0.126
128.21	14.96	0.126
128.25	14.76	0.126
128.27	14.66	0.126
128.30	14.49	0.126
128.34	14.31	0.126
128.36	14.18	0.126
128.38	14.08	0.126
128.42	13.89	0.126
128.45	13.74	0.126
128.48	13.59	0.126
128.51	13.44	0.126
128.54	13.29	0.126
128.57	13.14	0.126
128.60	12.99	0.125
128.63	12.86	0.125
128.66	12.67	0.125
128.69	12.55	0.125
128.72	12.38	0.125
128.75	12.23	0.125
128.78	12.08	0.125
128.81	11.95	0.125
128.87	11.64	0.125
128.82	11.88	0.125
128.88	11.58	0.125
128.93	11.34	0.125
128.96	11.20	0.125
129.00	11.02	0.125
129.02	10.88	0.125
129.06	10.70	0.125
129.08	10.60	0.125
129.11	10.43	0.125
129.15	10.27	0.125
129.17	10.14	0.125
129.20	10.01	0.125
129.24	9.82	0.125
129.27	9.67	0.125
129.29	9.58	0.125
129.32	9.38	0.125
129.35	9.24	0.125
129.39	9.07	0.125
129.41	8.93	0.125
129.44	8.80	0.125
129.48	8.63	0.125
129.50	8.51	0.125
129.53	8.34	0.125
129.56	8.20	0.125
129.59	8.04	0.125
129.63	7.86	0.125
129.65	7.73	0.125
129.68	7.59	0.125
129.72	7.42	0.125
129.74	7.33	0.125
129.77	7.14	0.125
129.80	6.98	0.125
129.83	6.87	0.125
129.87	6.67	0.125
129.89	6.54	0.125
129.92	6.40	0.125
129.95	6.25	0.125
129.99	6.07	0.125
130.01	5.95	0.125
130.04	5.81	0.125
130.07	5.65	0.125
130.10	5.50	0.125
130.13	5.36	0.125
130.17	5.17	0.125
130.20	5.03	0.125
130.22	4.91	0.125
130.25	4.74	0.125
130.28	4.61	0.125
130.31	4.45	0.125
130.35	4.27	0.125
130.37	4.14	0.125
130.41	3.97	0.125
130.43	3.86	0.125
130.47	3.67	0.125
130.50	3.53	0.125
130.51	3.44	0.125
130.55	3.26	0.125
130.58	3.10	0.125
130.61	2.97	0.125
130.64	2.79	0.125
130.68	2.63	0.125
130.70	2.52	0.125
130.73	2.34	0.125
130.76	2.22	0.125
130.80	2.03	0.125
130.81	1.93	0.125
130.85	1.75	0.125
130.89	1.56	0.125
130.91	1.45	0.125
130.94	1.32	0.125
130.97	1.15	0.125
131.01	0.98	0.125
131.03	0.86	0.125
131.06	0.69	0.125
131.09	0.54	0.125
131.13	0.38	0.125
131.14	0.29	0.125
131.18	0.09	0.125
131.20	0.01	0.125
131.24	-0.18	0.125
131.27	-0.33	0.125
131.30	-0.51	0.125
131.33	-0.65	0.125
131.36	-0.79	0.125
131.40	-0.97	0.125
131.43	-1.12	0.125
131.45	-1.26	0.125
131.49	-1.41	0.125
131.51	-1.56	0.125
131.55	-1.73	0.125
131.57	-1.85	0.125
131.60	-1.99	0.125
131.63	-2.16	0.125
131.66	-2.30	0.125
131.70	-2.46	0.125
131.73	-2.63	0.125
131.75	-2.73	0.125
131.79	-2.91	0.125
131.81	-3.04	0.125
131.84	-3.19	0.125
131.88	-3.37	0.125
131.91	-3.52	0.125
131.94	-3.66	0.125
131.96	-3.80	0.125
131.99	-3.95	0.125
132.02	-4.10	0.125
132.05	-4.24	0.125
132.08	-4.40	0.125
132.11	-4.53	0.125
132.15	-4.71	0.125
132.18	-4.87	0.125
132.20	-4.98	0.125
132.23	-5.15	0.125
132.26	-5.28	0.125
132.29	-5.44	0.125
132.33	-5.61	0.125
132.35	-5.75	0.125
132.39	-5.91	0.125
132.40	-6.01	0.125
132.45	-6.21	0.125
132.48	-6.37	0.125
132.50	-6.50	0.125
132.54	-6.66	0.125
132.56	-6.81	0.125
132.59	-6.92	0.125
132.62	-7.10	0.125
132.65	-7.23	0.125
132.68	-7.36	0.125
132.71	-7.54	0.125
132.74	-7.66	0.125
132.78	-7.86	0.125
132.80	-7.99	0.125
132.82	-8.10	0.125
132.86	-8.28	0.125
132.89	-8.43	0.125
132.92	-8.58	0.125
132.95	-8.74	0.125
132.98	-8.90	0.125
133.01	-9.02	0.125
133.05	-9.21	0.125
133.08	-9.35	0.125
133.10	-9.49	0.125
133.13	-9.65	0.125
133.16	-9.78	0.125
133.19	-9.94	0.125
133.22	-10.10	0.125
133.25	-10.24	0.125
133.28	-10.38	0.125
133.31	-10.52	0.125
133.34	-10.66	0.125
133.37	-10.82	0.125
133.40	-11.00	0.125
133.44	-11.16	0.125
133.46	-11.29	0.125
133.49	-11.42	0.125
133.52	-11.57	0.125
133.55	-11.73	0.125
133.58	-11.85	0.125
133.61	-12.03	0.125
133.65	-12.21	0.125
133.67	-12.33	0.125
133.70	-12.47	0.125
133.73	-12.63	0.125
133.76	-12.79	0.125
133.79	-12.93	0.125
133.82	-13.09	0.125
133.85	-13.24	0.125
133.87	-13.32	0.125
133.91	-13.52	0.125
133.94	-13.69	0.125
133.97	-13.82	0.125
134.01	-14.01	0.125
134.03	-14.14	0.125
134.06	-14.27	0.125
134.09	-14.43	0.125
134.12	-14.59	0.125
134.16	-14.75	0.125
134.18	-14.89	0.125
134.21	-15.04	0.125
134.24	-15.19	0.125
134.26	-15.29	0.125
134.30	-15.46	0.125
134.33	-15.64	0.125
134.36	-15.79	0.125
134.39	-15.92	0.125
134.42	-16.08	0.125
134.46	-16.25	0.126
134.48	-16.38	0.126
134.51	-16.53	0.126
134.54	-16.66	0.126
134.57	-16.82	0.126
134.60	-16.97	0.126
134.63	-17.12	0.126
134.66	-17.27	0.126
134.69	-17.43	0.126
134.72	-17.58	0.126
134.75	-17.71	0.126
134.79	-17.89	0.126
134.81	-18.02	0.126
134.84	-18.17	0.126
134.88	-18.35	0.126
134.89	-18.41	0.126
134.93	-18.62	0.126
134.96	-18.76	0.126
134.99	-18.93	0.126
135.02	-19.08	0.126
135.05	-19.24	0.126
135.09	-19.39	0.126
135.12	-19.54	0.126
135.14	-19.68	0.126
135.17	-19.82	0.126
135.21	-19.99	0.126
135.23	-20.11	0.126
135.26	-20.24	0.126
135.31	-20.51	0.126
135.28	-20.34	0.126
135.34	-20.65	0.126
135.38	-20.85	0.126
135.41	-21.02	0.126
135.44	-21.16	0.126
135.47	-21.30	0.126
135.50	-21.47	0.126
135.53	-21.61	0.126
135.55	-21.71	0.126
135.59	-21.92	0.126
135.62	-22.07	0.126
135.65	-22.22	0.126
135.68	-22.36	0.126
135.72	-22.55	0.126
135.75	-22.69	0.126
135.76	-22.77	0.126
135.80	-22.98	0.126
135.83	-23.10	0.126
135.86	-23.26	0.126
135.90	-23.45	0.126
135.92	-23.56	0.126
135.95	-23.73	0.126
135.99	-23.88	0.126
136.01	-24.02	0.126
136.05	-24.19	0.126
136.06	-24.23	0.126
136.10	-24.45	0.126
136.13	-24.59	0.126
136.16	-24.74	0.126
136.19	-24.92	0.126
136.22	-25.05	0.126
136.26	-25.23	0.126
136.28	-25.35	0.126
136.31	-25.51	0.126
136.35	-25.67	0.126
136.36	-25.77	0.126
136.41	-25.99	0.126
136.43	-26.11	0.126
136.46	-26.27	0.126
136.49	-26.41	0.126
136.52	-26.56	0.126
136.55	-26.70	0.126
136.58	-26.83	0.126
136.62	-27.02	0.126
136.64	-27.16	0.126
136.68	-27.32	0.126
136.70	-27.46	0.126
136.73	-27.62	0.127
136.77	-27.77	0.127
136.79	-27.88	0.127
136.83	-28.09	0.127
136.85	-28.20	0.127
136.88	-28.36	0.127
136.91	-28.50	0.127
136.94	-28.66	0.127
136.97	-28.79	0.127
137.00	-28.97	0.127
137.04	-29.13	0.127
137.07	-29.29	0.127
137.09	-29.40	0.127
137.11	-29.51	0.127
137.15	-29.71	0.127
137.18	-29.85	0.127
137.21	-29.99	0.127
137.25	-30.18	0.127
137.28	-30.32	0.127
137.31	-30.48	0.127
137.33	-30.60	0.127
137.36	-30.75	0.127
137.39	-30.90	0.127
137.42	-31.05	0.127
137.45	-31.18	0.127
137.48	-31.37	0.127
137.51	-31.48	0.127
137.54	-31.64	0.127
137.58	-31.83	0.127
137.60	-31.97	0.127
137.64	-32.13	0.127
137.66	-32.26	0.127
137.69	-32.41	0.127
137.72	-32.56	0.127
137.75	-32.71	0.127
137.78	-32.87	0.127
137.81	-32.99	0.127
137.85	-33.18	0.127
137.87	-33.30	0.127
137.90	-33.45	0.127
137.94	-33.63	0.127
137.96	-33.76	0.127
138.00	-33.93	0.127
138.02	-34.05	0.127
138.06	-34.26	0.127
138.08	-34.35	0.127
138.11	-34.49	0.127
138.15	-34.67	0.127
138.17	-34.81	0.127
138.20	-34.97	0.127
138.23	-35.08	0.127
138.26	-35.25	0.127
138.29	-35.39	0.127
138.33	-35.58	0.127
138.35	-35.71	0.127
138.38	-35.87	0.127
138.41	-36.00	0.127
138.44	-36.15	0.127
138.48	-36.32	0.127
138.50	-36.47	0.127
138.53	-36.57	0.127
138.57	-36.77	0.127
138.59	-36.90	0.127
138.62	-37.04	0.127
138.65	-37.21	0.127
138.68	-37.35	0.127
138.70	-37.43	0.127
138.74	-37.66	0.127
138.78	-37.82	0.127
138.80	-37.95	0.127
138.83	-38.10	0.127
138.86	-38.24	0.127
138.90	-38.44	0.127
138.92	-38.55	0.127
138.95	-38.68	0.127
138.98	-38.87	0.127
139.02	-39.02	0.127
139.04	-39.14	0.127
139.07	-39.31	0.127
139.11	-39.48	0.127
139.13	-39.60	0.127
139.16	-39.76	0.127
139.19	-39.91	0.127
139.22	-40.05	0.127
139.25	-40.19	0.127
139.28	-40.34	0.127
139.31	-40.51	0.127
139.34	-40.65	0.127
139.37	-40.79	0.127
139.40	-40.94	0.127
139.43	-41.09	0.127
139.46	-41.24	0.127
139.49	-41.39	0.127
139.53	-41.57	0.127
139.55	-41.70	0.127
139.58	-41.85	0.127
139.61	-42.01	0.127
139.64	-42.16	0.127
139.67	-42.30	0.127
139.70	-42.47	0.127
139.72	-42.56	0.127
139.77	-42.77	0.127
139.78	-42.87	0.117
139.82	-43.05	0.122
139.85	-43.22	0.123
139.88	-43.33	0.124
139.91	-43.49	0.124
139.94	-43.65	0.124
139.97	-43.80	0.125
140.00	-43.95	0.125
140.04	-44.13	0.125
140.05	-44.21	0.125
140.09	-44.40	0.125
140.12	-44.55	0.126
140.16	-44.73	0.126
140.18	-44.83	0.126
140.21	-44.99	0.126
140.24	-45.15	0.126
140.27	-45.30	0.126
140.30	-45.46	0.126
140.33	-45.61	0.126
140.36	-45.74	0.126
140.38	-45.84	0.126
140.42	-46.04	0.126
140.46	-46.23	0.126
140.48	-46.35	0.126
140.51	-46.48	0.126
140.54	-46.66	0.126
140.57	-46.81	0.126
140.60	-46.93	0.126
140.63	-47.10	0.126
140.66	-47.25	0.127
140.69	-47.37	0.127
140.72	-47.55	0.127
140.75	-47.71	0.127
140.78	-47.86	0.127
140.81	-48.00	0.127
140.85	-48.18	0.127
140.88	-48.32	0.126
140.90	-48.45	0.126
140.93	-48.60	0.126
140.96	-48.75	0.126
140.99	-48.91	0.126
141.03	-49.08	0.126
141.05	-49.22	0.126
141.08	-49.37	0.126
141.12	-49.52	0.126
141.14	-49.65	0.126
141.18	-49.83	0.126
141.21	-49.98	0.126
141.23	-50.11	0.126
141.27	-50.27	0.126
141.30	-50.42	0.126
141.32	-50.55	0.126
141.36	-50.72	0.126
141.38	-50.87	0.126
141.41	-50.97	0.126
141.44	-51.14	0.126
141.47	-51.29	0.126
141.50	-51.42	0.126
141.54	-51.63	0.126
141.56	-51.76	0.126
141.59	-51.91	0.126
141.63	-52.07	0.126
141.65	-52.21	0.126
141.68	-52.34	0.125
141.72	-52.53	0.125
141.74	-52.64	0.125
141.78	-52.82	0.125
141.80	-52.97	0.125
141.84	-53.13	0.125
141.86	-53.25	0.125
141.89	-53.39	0.125
141.91	-53.50	0.125
141.95	-53.72	0.125
141.98	-53.86	0.125
142.01	-54.00	0.125
142.05	-54.17	0.125
142.07	-54.31	0.124
142.10	-54.43	0.124
142.13	-54.60	0.124
142.17	-54.77	0.124
142.23	-55.07	0.124
142.20	-54.93	0.124
142.26	-55.23	0.124
142.28	-55.34	0.124
142.31	-55.51	0.123
142.35	-55.67	0.123
142.37	-55.79	0.123
142.40	-55.95	0.123
142.44	-56.13	0.123
142.46	-56.23	0.123
142.50	-56.42	0.123
142.52	-56.53	0.122
142.56	-56.74	0.122
142.58	-56.85	0.122
142.60	-56.97	0.122
142.64	-57.15	0.122
142.67	-57.29	0.121
142.71	-57.49	0.121
142.73	-57.57	0.121
142.76	-57.75	0.121
142.79	-57.91	0.120
142.83	-58.09	0.120
142.85	-58.22	0.120
142.88	-58.35	0.120
142.91	-58.51	0.119
142.94	-58.66	0.119
142.98	-58.82	0.119
143.00	-58.95	0.118
143.03	-59.11	0.118
143.05	-59.22	0.118
143.09	-59.41	0.117
143.12	-59.55	0.117
143.16	-59.73	0.116
143.18	-59.82	0.116
143.21	-60.00	0.116
143.25	-60.17	0.115
143.27	-60.30	0.115
143.30	-60.47	0.114
143.33	-60.61	0.114
143.36	-60.76	0.113
143.40	-60.98	0.113
143.43	-61.08	0.112
143.45	-61.23	0.111
143.48	-61.37	0.111
143.51	-61.51	0.110
143.55	-61.68	0.110
143.57	-61.80	0.109
143.60	-61.96	0.109
143.63	-62.11	0.108
143.67	-62.28	0.107
143.68	-62.37	0.107
143.72	-62.57	0.106
143.75	-62.72	0.106
143.78	-62.86	0.105
143.81	-63.03	0.104
143.84	-63.16	0.103
143.87	-63.32	0.103
143.91	-63.50	0.102
143.93	-63.61	0.101
143.96	-63.77	0.101
143.99	-63.91	0.100
144.02	-64.08	0.099
144.06	-64.26	0.098
144.08	-64.37	0.098
144.12	-64.54	0.097
144.14	-64.68	0.097
144.17	-64.81	0.096
144.20	-64.97	0.095
144.24	-65.15	0.094
144.26	-65.25	0.094
144.29	-65.41	0.093
144.33	-65.60	0.092
144.36	-65.76	0.092
144.38	-65.89	0.091
144.41	-66.04	0.090
144.44	-66.16	0.090
144.48	-66.36	0.089
144.50	-66.50	0.088
144.53	-66.61	0.087
144.56	-66.79	0.086
144.60	-66.95	0.086
144.62	-67.09	0.085
144.65	-67.24	0.085
144.68	-67.38	0.084
144.71	-67.54	0.084
144.74	-67.68	0.083
144.77	-67.85	0.082
144.80	-68.00	0.082
144.83	-68.13	0.081
144.86	-68.30	0.081
144.89	-68.42	0.080
144.92	-68.58	0.079
144.96	-68.77	0.079
144.98	-68.89	0.078
145.01	-69.04	0.078
145.05	-69.21	0.077
145.07	-69.32	0.077
145.10	-69.51	0.076
145.13	-69.62	0.076
145.16	-69.78	0.075
145.19	-69.95	0.074
145.23	-70.13	0.074
145.25	-70.26	0.074
145.28	-70.40	0.073
145.32	-70.58	0.073
145.34	-70.71	0.072
145.37	-70.86	0.072
145.40	-70.98	0.071
145.43	-71.12	0.071
145.46	-71.30	0.070
145.49	-71.46	0.070
145.52	-71.60	0.070
145.55	-71.75	0.069
145.58	-71.91	0.069
145.61	-72.05	0.069
145.64	-72.21	0.068
145.68	-72.37	0.068
145.70	-72.50	0.067
145.73	-72.64	0.067
145.77	-72.82	0.067
145.79	-72.96	0.066
145.82	-73.11	0.066
145.85	-73.26	0.066
145.87	-73.35	0.065
145.91	-73.56	0.065
145.94	-73.72	0.065
145.98	-73.87	0.064
146.00	-73.97	0.064
146.03	-74.17	0.064
146.07	-74.33	0.063
146.09	-74.45	0.063
146.13	-74.63	0.063
146.15	-74.78	0.062
146.18	-74.92	0.062
146.21	-75.07	0.062
146.24	-75.21	0.061
146.27	-75.37	0.061
146.30	-75.52	0.061
146.33	-75.64	0.061
146.36	-75.79	0.060
146.40	-76.02	0.060
146.43	-76.14	0.060
146.44	-76.22	0.060
146.48	-76.43	0.059
146.51	-76.56	0.059
146.54	-76.69	0.059
146.58	-76.90	0.059
146.60	-77.03	0.059
146.63	-77.18	0.058
146.66	-77.31	0.058
146.71	-77.54	0.058
146.77	-77.84	0.058
146.71	-77.56	0.058
146.77	-77.86	0.058
146.81	-78.07	0.057
146.84	-78.20	0.057
146.88	-78.40	0.057
146.90	-78.53	0.057
146.94	-78.69	0.056
146.96	-78.81	0.056
147.00	-78.98	0.056
147.02	-79.10	0.056
147.05	-79.28	0.056
147.08	-79.43	0.055
147.11	-79.57	0.055
147.15	-79.74	0.055
147.17	-79.87	0.055
147.20	-80.03	0.055
147.23	-80.16	0.055
147.26	-80.31	0.054
147.29	-80.46	0.054
147.32	-80.57	0.054
147.35	-80.76	0.054
147.39	-80.93	0.054
147.42	-81.07	0.054
147.45	-81.23	0.053
147.47	-81.33	0.053
147.50	-81.52	0.053
147.53	-81.65	0.053
147.56	-81.81	0.053
147.59	-81.94	0.053
147.62	-82.11	0.053
147.65	-82.26	0.053
147.68	-82.39	0.052
147.71	-82.54	0.052
147.75	-82.72	0.052
147.77	-82.85	0.052
147.80	-83.00	0.052
147.83	-83.14	0.052
147.86	-83.31	0.052
147.89	-83.46	0.051
147.93	-83.61	0.051
147.95	-83.76	0.051
147.98	-83.90	0.051
148.01	-84.04	0.051
148.03	-84.16	0.051
148.07	-84.35	0.051
148.10	-84.50	0.051
148.13	-84.63	0.051
148.16	-84.79	0.050
148.19	-84.93	0.050
148.23	-85.14	0.050
148.25	-85.26	0.050
148.28	-85.40	0.050
148.32	-85.56	0.050
148.34	-85.68	0.050
148.38	-85.89	0.050
148.40	-85.98	0.050
148.43	-86.16	0.049
148.46	-86.29	0.049
148.50	-86.46	0.049
148.52	-86.56	0.049
148.55	-86.74	0.049
148.58	-86.88	0.049
148.62	-87.05	0.049
148.65	-87.20	0.049
148.67	-87.31	0.049
148.71	-87.51	0.049
148.74	-87.67	0.048
148.76	-87.77	0.048
148.79	-87.94	0.048
148.82	-88.07	0.048
148.85	-88.24	0.048
148.88	-88.38	0.048
148.92	-88.55	0.048
148.95	-88.70	0.048
148.97	-88.81	0.048
149.00	-88.99	0.048
149.04	-89.15	0.048
149.07	-89.30	0.047
149.09	-89.43	0.047
149.13	-89.60	0.047
149.15	-89.73	0.047
149.18	-89.86	0.047
149.21	-90.03	0.047
149.23	-90.13	0.047
149.32	-90.54	0.047
149.26	-90.28	0.047
149.32	-90.57	0.047
149.36	-90.78	0.047
149.39	-90.93	0.047
149.42	-91.08	0.047
149.45	-91.22	0.046
149.48	-91.38	0.046
149.52	-91.54	0.046
149.54	-91.68	0.046
149.57	-91.82	0.046
149.60	-91.97	0.046
149.63	-92.12	0.046
149.67	-92.29	0.046
149.70	-92.43	0.046
149.72	-92.53	0.046
149.75	-92.71	0.046
149.78	-92.85	0.046
149.82	-93.03	0.046
149.85	-93.18	0.045
149.87	-93.31	0.045
149.90	-93.43	0.045
149.94	-93.65	0.045
149.96	-93.77	0.045
150.00	-93.93	0.045
150.02	-94.04	0.045
150.05	-94.19	0.045
150.08	-94.34	0.045
150.12	-94.53	0.045
150.14	-94.64	0.045
150.18	-94.82	0.045
150.20	-94.97	0.045
150.23	-95.07	0.045
150.26	-95.26	0.044
150.30	-95.44	0.044
150.33	-95.57	0.044
150.35	-95.70	0.044
150.38	-95.86	0.044
150.41	-95.99	0.044
150.44	-96.15	0.044
150.46	-96.26	0.044
150.50	-96.44	0.044
150.53	-96.59	0.044
150.56	-96.75	0.044
150.59	-96.90	0.044
150.63	-97.06	0.044
150.65	-97.21	0.044
150.68	-97.35	0.043
150.72	-97.52	0.043
150.74	-97.63	0.043
150.78	-97.81	0.043
150.80	-97.95	0.043
150.83	-98.09	0.043
150.86	-98.25	0.043
150.90	-98.42	0.043
150.93	-98.56	0.043
150.95	-98.70	0.043
150.99	-98.87	0.043
151.00	-98.95	0.043

[step]
Ramp 5.00 °C/min to 120.00 °C
Time	Temperature	Heat Flow (Normalized)	Heat Flow
min	°C	W/g	mW
151.00	-98.96	0.043	0.552
151.03	-99.08	0.043	0.552
151.07	-99.25	0.041	0.525
151.09	-99.29	0.050	0.640
151.13	-99.29	0.067	0.869
151.16	-99.25	0.066	0.853
151.18	-99.20	0.054	0.700
151.21	-99.12	0.033	0.422
151.25	-99.03	0.015	0.190
151.28	-98.93	0.000	-0.002
151.31	-98.81	-0.017	-0.220
151.34	-98.70	-0.029	-0.374
151.36	-98.59	-0.039	-0.504
151.41	-98.41	-0.051	-0.662
151.43	-98.32	-0.057	-0.733
151.45	-98.20	-0.063	-0.810
151.49	-98.04	-0.069	-0.890
151.52	-97.91	-0.073	-0.944
151.55	-97.77	-0.077	-0.993
151.57	-97.65	-0.079	-1.025
151.60	-97.52	-0.082	-1.060
151.64	-97.34	-0.085	-1.095
151.65	-97.25	-0.086	-1.108
151.70	-97.04	-0.088	-1.138
151.73	-96.88	-0.089	-1.152
151.75	-96.77	-0.090	-1.162
151.78	-96.62	-0.091	-1.175
151.81	-96.49	-0.091	-1.179
151.85	-96.32	-0.092	-1.187
151.88	-96.15	-0.093	-1.194
151.90	-96.06	-0.093	-1.196
151.93	-95.88	-0.093	-1.203
151.97	-95.72	-0.094	-1.208
152.00	-95.57	-0.094	-1.211
152.02	-95.44	-0.094	-1.214
152.06	-95.26	-0.094	-1.219
152.08	-95.13	-0.095	-1.221
152.12	-94.97	-0.095	-1.225
152.15	-94.82	-0.095	-1.227
152.18	-94.66	-0.095	-1.230
152.20	-94.56	-0.096	-1.234
152.24	-94.36	-0.096	-1.236
152.26	-94.27	-0.096	-1.238
152.29	-94.12	-0.096	-1.240
152.32	-93.96	-0.096	-1.242
152.36	-93.78	-0.096	-1.244
152.39	-93.60	-0.097	-1.247
152.41	-93.50	-0.097	-1.248
152.44	-93.38	-0.097	-1.249
152.47	-93.19	-0.097	-1.251
152.50	-93.04	-0.097	-1.252
152.53	-92.89	-0.097	-1.254
152.56	-92.76	-0.097	-1.255
152.60	-92.59	-0.097	-1.256
152.63	-92.44	-0.097	-1.258
152.65	-92.29	-0.098	-1.259
152.68	-92.14	-0.098	-1.260
152.72	-91.95	-0.098	-1.262
152.73	-91.92	-0.098	-1.262
152.77	-91.73	-0.098	-1.263
152.80	-91.56	-0.098	-1.264
152.83	-91.40	-0.098	-1.265
152.87	-91.24	-0.098	-1.267
152.90	-91.06	-0.098	-1.268
152.93	-90.93	-0.098	-1.268
152.95	-90.81	-0.098	-1.269
152.99	-90.63	-0.099	-1.271
153.02	-90.49	-0.099	-1.271
153.04	-90.37	-0.099	-1.272
153.08	-90.15	-0.099	-1.273
153.11	-90.01	-0.099	-1.274
153.14	-89.88	-0.099	-1.275
153.16	-89.76	-0.099	-1.276
153.19	-89.60	-0.099	-1.276
153.23	-89.41	-0.099	-1.278
153.26	-89.28	-0.099	-1.279
153.28	-89.17	-0.099	-1.280
153.32	-88.98	-0.099	-1.280
153.35	-88.83	-0.099	-1.281
153.38	-88.69	-0.099	-1.282
153.41	-88.52	-0.099	-1.283
153.44	-88.38	-0.100	-1.284
153.46	-88.25	-0.100	-1.284
153.49	-88.12	-0.100	-1.285
153.52	-87.99	-0.100	-1.285
153.56	-87.76	-0.100	-1.287
153.58	-87.65	-0.100	-1.287
153.61	-87.52	-0.100	-1.288
153.65	-87.33	-0.100	-1.289
153.68	-87.18	-0.100	-1.290
153.70	-87.05	-0.100	-1.290
153.74	-86.87	-0.100	-1.291
153.77	-86.72	-0.100	-1.292
153.80	-86.59	-0.100	-1.293
153.83	-86.44	-0.100	-1.293
153.85	-86.33	-0.100	-1.294
153.89	-86.11	-0.100	-1.295
153.92	-85.95	-0.100	-1.296
153.95	-85.81	-0.101	-1.297
153.98	-85.68	-0.101	-1.298
154.01	-85.54	-0.101	-1.298
154.03	-85.40	-0.101	-1.299
154.06	-85.27	-0.101	-1.300
154.10	-85.09	-0.101	-1.301
154.13	-84.93	-0.101	-1.302
154.15	-84.79	-0.101	-1.302
154.19	-84.64	-0.101	-1.303
154.22	-84.46	-0.101	-1.304
154.24	-84.37	-0.101	-1.305
154.27	-84.21	-0.101	-1.306
154.31	-84.04	-0.101	-1.307
154.33	-83.90	-0.101	-1.308
154.36	-83.79	-0.101	-1.308
154.40	-83.59	-0.102	-1.309
154.43	-83.44	-0.102	-1.310
154.46	-83.29	-0.102	-1.312
154.48	-83.14	-0.102	-1.313
154.52	-82.98	-0.102	-1.314
154.54	-82.86	-0.102	-1.314
154.58	-82.69	-0.102	-1.315
154.61	-82.54	-0.102	-1.316
154.64	-82.39	-0.102	-1.317
154.66	-82.27	-0.102	-1.318
154.69	-82.11	-0.102	-1.319
154.72	-81.96	-0.102	-1.320
154.76	-81.79	-0.102	-1.321
154.78	-81.66	-0.102	-1.322
154.82	-81.50	-0.103	-1.323
154.84	-81.37	-0.103	-1.324
154.88	-81.18	-0.103	-1.325
154.91	-81.03	-0.103	-1.326
154.94	-80.87	-0.103	-1.327
154.97	-80.73	-0.103	-1.328
154.99	-80.61	-0.103	-1.329
155.03	-80.44	-0.103	-1.330
155.05	-80.34	-0.103	-1.331
155.08	-80.15	-0.103	-1.332
155.12	-79.99	-0.103	-1.333
155.14	-79.86	-0.103	-1.334
155.17	-79.72	-0.104	-1.335
155.20	-79.55	-0.104	-1.336
155.24	-79.37	-0.104	-1.338
155.27	-79.23	-0.104	-1.338
155.30	-79.10	-0.104	-1.340
155.33	-78.92	-0.104	-1.341
155.35	-78.81	-0.104	-1.342
155.39	-78.64	-0.104	-1.343
155.41	-78.53	-0.104	-1.344
155.44	-78.38	-0.104	-1.345
155.47	-78.21	-0.104	-1.347
155.51	-78.03	-0.104	-1.348
155.54	-77.88	-0.105	-1.349
155.56	-77.78	-0.105	-1.350
155.59	-77.64	-0.105	-1.351
155.63	-77.45	-0.105	-1.352
155.66	-77.29	-0.105	-1.353
155.68	-77.15	-0.105	-1.355
155.71	-77.01	-0.105	-1.356
155.74	-76.86	-0.105	-1.357
155.78	-76.70	-0.105	-1.359
155.81	-76.54	-0.105	-1.360
155.84	-76.39	-0.106	-1.361
155.87	-76.25	-0.106	-1.363
155.90	-76.09	-0.106	-1.364
155.93	-75.93	-0.106	-1.366
155.95	-75.80	-0.106	-1.367
155.99	-75.63	-0.106	-1.369
156.02	-75.49	-0.106	-1.370
156.05	-75.35	-0.106	-1.372
156.07	-75.21	-0.106	-1.373
156.11	-75.04	-0.107	-1.375
156.13	-74.92	-0.107	-1.376
156.16	-74.77	-0.107	-1.378
156.20	-74.60	-0.107	-1.380
156.23	-74.45	-0.107	-1.382
156.25	-74.31	-0.107	-1.383
156.28	-74.17	-0.107	-1.385
156.31	-74.03	-0.108	-1.387
156.35	-73.85	-0.108	-1.389
156.37	-73.71	-0.108	-1.391
156.40	-73.60	-0.108	-1.392
156.43	-73.42	-0.108	-1.394
156.47	-73.24	-0.108	-1.397
156.49	-73.11	-0.108	-1.398
156.52	-72.96	-0.109	-1.401
156.55	-72.82	-0.109	-1.403
156.58	-72.67	-0.109	-1.405
156.61	-72.55	-0.109	-1.407
156.64	-72.37	-0.109	-1.409
156.68	-72.19	-0.109	-1.412
156.71	-72.05	-0.110	-1.414
156.74	-71.88	-0.110	-1.417
156.77	-71.75	-0.110	-1.420
156.80	-71.58	-0.110	-1.423
156.83	-71.46	-0.110	-1.425
156.87	-71.22	-0.111	-1.429
156.84	-71.38	-0.111	-1.427
156.90	-71.08	-0.111	-1.432
156.93	-70.91	-0.111	-1.435
156.98	-70.71	-0.112	-1.440
157.01	-70.55	-0.112	-1.442
157.03	-70.42	-0.112	-1.445
157.06	-70.30	-0.112	-1.447
157.10	-70.11	-0.112	-1.451
157.13	-69.96	-0.113	-1.453
157.16	-69.80	-0.113	-1.458
157.18	-69.68	-0.113	-1.460
157.22	-69.49	-0.114	-1.465
157.25	-69.35	-0.114	-1.468
157.27	-69.23	-0.114	-1.471
157.30	-69.07	-0.114	-1.476
157.33	-68.92	-0.115	-1.480
157.37	-68.74	-0.115	-1.484
157.39	-68.66	-0.115	-1.488
157.42	-68.49	-0.116	-1.492
157.45	-68.32	-0.116	-1.497
157.48	-68.17	-0.116	-1.503
157.51	-68.06	-0.117	-1.506
157.54	-67.89	-0.117	-1.511
157.55	-67.82	-0.117	-1.513
157.60	-67.58	-0.118	-1.520
157.64	-67.40	-0.118	-1.527
157.67	-67.27	-0.119	-1.531
157.70	-67.11	-0.119	-1.538
157.73	-66.95	-0.120	-1.544
157.75	-66.82	-0.120	-1.549
157.79	-66.65	-0.121	-1.556
157.82	-66.52	-0.121	-1.564
157.85	-66.36	-0.122	-1.572
157.87	-66.23	-0.122	-1.578
157.91	-66.06	-0.123	-1.586
157.93	-65.94	-0.123	-1.592
157.96	-65.81	-0.124	-1.597
158.00	-65.63	-0.125	-1.609
158.03	-65.47	-0.126	-1.619
158.06	-65.30	-0.126	-1.629
158.09	-65.17	-0.127	-1.636
158.12	-65.02	-0.128	-1.649
158.15	-64.87	-0.128	-1.657
158.18	-64.72	-0.129	-1.666
158.20	-64.59	-0.130	-1.674
158.27	-64.29	-0.131	-1.695
158.23	-64.49	-0.130	-1.683
158.28	-64.19	-0.132	-1.703
158.32	-63.99	-0.133	-1.716
158.35	-63.84	-0.134	-1.727
158.38	-63.69	-0.135	-1.737
158.42	-63.52	-0.136	-1.750
158.44	-63.43	-0.136	-1.755
158.48	-63.22	-0.137	-1.771
158.50	-63.11	-0.138	-1.782
158.53	-62.96	-0.139	-1.799
158.56	-62.83	-0.140	-1.812
158.60	-62.65	-0.141	-1.821
158.62	-62.51	-0.142	-1.831
158.65	-62.37	-0.143	-1.844
158.69	-62.19	-0.144	-1.858
158.70	-62.10	-0.145	-1.867
158.74	-61.92	-0.146	-1.883
158.78	-61.75	-0.147	-1.895
158.81	-61.58	-0.148	-1.908
158.84	-61.44	-0.149	-1.919
158.87	-61.30	-0.149	-1.928
158.90	-61.13	-0.151	-1.941
158.92	-61.02	-0.151	-1.947
158.96	-60.85	-0.152	-1.964
158.98	-60.73	-0.153	-1.971
159.02	-60.54	-0.154	-1.989
159.05	-60.41	-0.155	-1.999
159.08	-60.25	-0.156	-2.007
159.11	-60.11	-0.156	-2.017
159.13	-59.99	-0.157	-2.027
159.17	-59.79	-0.158	-2.040
159.20	-59.67	-0.159	-2.051
159.23	-59.51	-0.159	-2.057
159.25	-59.39	-0.160	-2.063
159.28	-59.23	-0.161	-2.075
159.31	-59.08	-0.162	-2.084
159.35	-58.91	-0.162	-2.091
159.38	-58.77	-0.163	-2.097
159.41	-58.62	-0.163	-2.104
159.44	-58.47	-0.164	-2.113
159.47	-58.32	-0.164	-2.120
159.50	-58.17	-0.165	-2.126
159.52	-58.03	-0.165	-2.133
159.56	-57.86	-0.166	-2.140
159.58	-57.74	-0.166	-2.144
159.64	-57.44	-0.167	-2.159
159.61	-57.62	-0.167	-2.151
159.67	-57.32	-0.168	-2.163
159.70	-57.14	-0.168	-2.169
159.74	-56.96	-0.169	-2.175
159.76	-56.86	-0.169	-2.178
159.78	-56.73	-0.169	-2.183
159.83	-56.52	-0.170	-2.190
159.86	-56.36	-0.170	-2.196
159.89	-56.21	-0.171	-2.200
159.92	-56.08	-0.171	-2.203
159.95	-55.92	-0.171	-2.207
159.98	-55.78	-0.171	-2.211
160.00	-55.63	-0.172	-2.215
160.03	-55.50	-0.172	-2.218
160.06	-55.35	-0.172	-2.221
160.09	-55.22	-0.173	-2.227
160.12	-55.05	-0.173	-2.230
160.15	-54.88	-0.173	-2.234
160.18	-54.73	-0.173	-2.237
160.23	-54.49	-0.174	-2.242
160.29	-54.19	-0.174	-2.247
160.25	-54.42	-0.174	-2.243
160.31	-54.12	-0.174	-2.249
160.33	-54.01	-0.174	-2.250
160.37	-53.82	-0.175	-2.254
160.39	-53.70	-0.175	-2.256
160.43	-53.52	-0.175	-2.258
160.45	-53.40	-0.175	-2.260
160.48	-53.25	-0.175	-2.262
160.52	-53.07	-0.176	-2.265
160.55	-52.92	-0.176	-2.267
160.58	-52.78	-0.176	-2.269
160.61	-52.62	-0.176	-2.271
160.64	-52.47	-0.176	-2.273
160.66	-52.36	-0.176	-2.274
160.70	-52.17	-0.176	-2.276
160.73	-52.01	-0.177	-2.278
160.76	-51.87	-0.177	-2.279
160.78	-51.74	-0.177	-2.280
160.82	-51.57	-0.177	-2.282
160.84	-51.47	-0.177	-2.282
160.88	-51.25	-0.177	-2.284
160.90	-51.14	-0.177	-2.285
160.94	-50.97	-0.177	-2.286
160.97	-50.83	-0.177	-2.287
160.99	-50.71	-0.177	-2.288
161.02	-50.54	-0.177	-2.289
161.05	-50.38	-0.178	-2.291
161.08	-50.28	-0.178	-2.291
161.15	-49.93	-0.178	-2.293
161.11	-50.10	-0.178	-2.292
161.17	-49.80	-0.178	-2.294
161.21	-49.61	-0.178	-2.294
161.24	-49.46	-0.178	-2.295
161.27	-49.32	-0.178	-2.296
161.30	-49.18	-0.178	-2.297
161.32	-49.08	-0.178	-2.297
161.36	-48.86	-0.178	-2.298
161.38	-48.74	-0.178	-2.299
161.42	-48.56	-0.178	-2.299
161.44	-48.47	-0.178	-2.299
161.48	-48.26	-0.178	-2.300
161.51	-48.12	-0.178	-2.300
161.54	-47.96	-0.178	-2.300
161.55	-47.91	-0.178	-2.300
161.60	-47.65	-0.178	-2.301
161.62	-47.54	-0.178	-2.301
161.65	-47.39	-0.178	-2.301
161.68	-47.24	-0.178	-2.302
161.72	-47.05	-0.178	-2.302
161.74	-46.95	-0.178	-2.303
161.78	-46.77	-0.179	-2.303
161.81	-46.61	-0.179	-2.303
161.83	-46.48	-0.179	-2.303
161.86	-46.35	-0.179	-2.303
161.89	-46.19	-0.179	-2.304
161.92	-46.04	-0.179	-2.304
161.95	-45.88	-0.179	-2.304
161.98	-45.74	-0.179	-2.305
162.02	-45.58	-0.179	-2.305
162.04	-45.44	-0.179	-2.305
162.08	-45.26	-0.179	-2.306
162.10	-45.14	-0.179	-2.306
162.13	-44.98	-0.179	-2.306
162.16	-44.83	-0.179	-2.306
162.20	-44.67	-0.179	-2.307
162.23	-44.52	-0.179	-2.307
162.26	-44.37	-0.179	-2.308
162.29	-44.22	-0.179	-2.307
162.31	-44.09	-0.179	-2.308
162.34	-43.94	-0.179	-2.308
162.37	-43.83	-0.179	-2.308
162.40	-43.66	-0.179	-2.308
162.44	-43.47	-0.179	-2.308
162.47	-43.31	-0.179	-2.308
162.49	-43.19	-0.179	-2.308
162.53	-43.02	-0.179	-2.309
162.56	-42.87	-0.179	-2.308
162.59	-42.71	-0.179	-2.308
162.62	-42.56	-0.179	-2.308
162.64	-42.47	-0.179	-2.308
[...]
172.94	9.09	-0.176	-2.266
172.96	9.17	-0.176	-2.266
173.00	9.38	-0.176	-2.267
173.01	9.45	-0.176	-2.267
173.05	9.67	-0.176	-2.267
173.08	9.78	-0.176	-2.267
173.12	9.97	-0.176	-2.268
173.15	10.12	-0.176	-2.268
173.18	10.29	-0.176	-2.268
173.21	10.42	-0.176	-2.268
173.23	10.52	-0.176	-2.268
173.26	10.69	-0.176	-2.268
173.30	10.87	-0.176	-2.268
173.32	11.01	-0.176	-2.268
173.35	11.13	-0.176	-2.268
173.38	11.27	-0.176	-2.268
173.41	11.45	-0.176	-2.268
173.45	11.63	-0.176	-2.268
173.48	11.77	-0.176	-2.268
173.51	11.93	-0.176	-2.269
173.53	12.07	-0.176	-2.269
173.57	12.22	-0.176	-2.269
173.60	12.38	-0.176	-2.269
173.63	12.53	-0.176	-2.269
173.65	12.67	-0.176	-2.269
173.69	12.83	-0.176	-2.270
173.71	12.93	-0.176	-2.270
173.74	13.11	-0.176	-2.270
173.78	13.28	-0.176	-2.271
173.81	13.42	-0.176	-2.271
173.83	13.53	-0.176	-2.271
173.87	13.72	-0.176	-2.271
173.90	13.89	-0.176	-2.271
173.91	13.96	-0.176	-2.271
173.95	14.17	-0.176	-2.272
173.98	14.29	-0.176	-2.272
174.02	14.47	-0.176	-2.272
174.05	14.63	-0.176	-2.272
174.07	14.76	-0.176	-2.272
174.11	14.93	-0.176	-2.273
174.13	15.05	-0.176	-2.273
174.17	15.23	-0.176	-2.274
174.19	15.35	-0.176	-2.274
174.23	15.54	-0.176	-2.274
174.25	15.65	-0.176	-2.274
174.29	15.84	-0.176	-2.274
174.31	15.96	-0.176	-2.274
174.35	16.12	-0.176	-2.274
174.38	16.27	-0.176	-2.275
174.40	16.39	-0.176	-2.275
174.43	16.54	-0.176	-2.275
174.46	16.70	-0.176	-2.276
174.50	16.89	-0.176	-2.276
174.52	17.01	-0.176	-2.276
174.56	17.19	-0.176	-2.276
174.58	17.32	-0.176	-2.277
174.61	17.44	-0.176	-2.277
174.65	17.63	-0.177	-2.277
174.67	17.74	-0.177	-2.277
174.70	17.92	-0.177	-2.278
174.75	18.15	-0.177	-2.278
174.81	18.45	-0.177	-2.279
174.75	18.14	-0.177	-2.278
174.81	18.44	-0.177	-2.279
174.84	18.61	-0.177	-2.279
174.88	18.82	-0.177	-2.279
174.91	18.96	-0.177	-2.280
174.94	19.11	-0.177	-2.280
174.98	19.29	-0.177	-2.280
175.01	19.44	-0.177	-2.280
175.04	19.58	-0.177	-2.280
175.07	19.75	-0.177	-2.281
175.10	19.87	-0.177	-2.281
175.12	20.01	-0.177	-2.281
175.15	20.16	-0.177	-2.281
175.18	20.29	-0.177	-2.281
175.21	20.45	-0.177	-2.282
175.23	20.54	-0.177	-2.282
175.28	20.77	-0.177	-2.282
175.30	20.90	-0.177	-2.282
175.34	21.08	-0.177	-2.282
175.36	21.21	-0.177	-2.283
175.39	21.36	-0.177	-2.283
175.43	21.52	-0.177	-2.283
175.45	21.66	-0.177	-2.283
175.49	21.83	-0.177	-2.284
175.51	21.96	-0.177	-2.284
175.55	22.13	-0.177	-2.284
175.57	22.26	-0.177	-2.284
175.60	22.38	-0.177	-2.284
175.64	22.58	-0.177	-2.284
175.67	22.73	-0.177	-2.284
175.70	22.87	-0.177	-2.285
175.75	23.17	-0.177	-2.286
175.73	23.03	-0.177	-2.285
175.79	23.33	-0.177	-2.286
175.82	23.48	-0.177	-2.286
175.85	23.62	-0.177	-2.286
175.88	23.80	-0.177	-2.286
175.90	23.91	-0.177	-2.286
175.94	24.11	-0.177	-2.287
175.97	24.22	-0.177	-2.287
175.99	24.36	-0.177	-2.287
176.03	24.52	-0.177	-2.287
176.06	24.69	-0.177	-2.287
176.08	24.81	-0.177	-2.287
176.11	24.97	-0.177	-2.287
176.14	25.08	-0.177	-2.287
176.18	25.28	-0.177	-2.287
176.20	25.41	-0.177	-2.288
176.23	25.57	-0.177	-2.288
176.27	25.72	-0.177	-2.288
176.30	25.88	-0.177	-2.288
176.32	26.00	-0.177	-2.289
176.35	26.16	-0.177	-2.289
176.39	26.35	-0.177	-2.289
176.42	26.49	-0.177	-2.289
176.44	26.62	-0.177	-2.289
176.48	26.79	-0.177	-2.289
176.51	26.94	-0.177	-2.290
176.54	27.08	-0.177	-2.290
176.57	27.25	-0.178	-2.290
176.59	27.37	-0.178	-2.290
176.63	27.53	-0.178	-2.290
176.65	27.68	-0.178	-2.290
176.68	27.81	-0.178	-2.290
176.72	27.99	-0.178	-2.290
176.75	28.13	-0.178	-2.290
176.77	28.27	-0.178	-2.290
176.80	28.42	-0.178	-2.291
176.84	28.58	-0.178	-2.291
176.87	28.74	-0.178	-2.291
176.90	28.91	-0.178	-2.291
176.92	29.02	-0.178	-2.291
176.96	29.18	-0.178	-2.291
176.99	29.34	-0.178	-2.291
177.02	29.48	-0.178	-2.292
177.04	29.61	-0.178	-2.292
177.08	29.79	-0.178	-2.292
177.10	29.91	-0.178	-2.292
177.14	30.09	-0.178	-2.292
177.16	30.22	-0.178	-2.292
177.20	30.38	-0.178	-2.292
177.23	30.57	-0.178	-2.292
177.25	30.68	-0.178	-2.293
177.28	30.81	-0.178	-2.292
177.32	30.99	-0.178	-2.293
177.35	31.15	-0.178	-2.293
177.38	31.28	-0.178	-2.293
177.41	31.44	-0.178	-2.293
177.44	31.58	-0.178	-2.294
177.47	31.74	-0.178	-2.294
177.50	31.89	-0.178	-2.294
177.52	32.00	-0.178	-2.294
177.55	32.16	-0.178	-2.294
177.58	32.29	-0.178	-2.295
177.61	32.47	-0.178	-2.295
177.64	32.62	-0.178	-2.295
177.68	32.79	-0.178	-2.295
177.70	32.92	-0.178	-2.295
177.73	33.06	-0.178	-2.295
177.77	33.26	-0.178	-2.296
177.80	33.38	-0.178	-2.295
177.83	33.54	-0.178	-2.296
177.85	33.66	-0.178	-2.296
177.89	33.86	-0.178	-2.296
177.92	33.99	-0.178	-2.296
177.94	34.11	-0.178	-2.297
177.97	34.26	-0.178	-2.297
178.00	34.40	-0.178	-2.297
178.04	34.59	-0.178	-2.297
178.07	34.77	-0.178	-2.297
178.10	34.89	-0.178	-2.298
178.12	35.02	-0.178	-2.298
178.16	35.19	-0.178	-2.298
178.18	35.32	-0.178	-2.298
178.22	35.50	-0.178	-2.298
178.24	35.62	-0.178	-2.298
178.28	35.80	-0.178	-2.299
178.31	35.95	-0.178	-2.299
178.33	36.05	-0.178	-2.299
178.36	36.20	-0.178	-2.299
178.39	36.37	-0.178	-2.299
178.42	36.51	-0.178	-2.300
178.46	36.70	-0.178	-2.300
178.48	36.83	-0.178	-2.300
178.52	37.01	-0.178	-2.300
178.55	37.13	-0.178	-2.300
178.57	37.27	-0.178	-2.300
178.61	37.44	-0.178	-2.301
178.64	37.60	-0.178	-2.301
178.65	37.68	-0.178	-2.301
178.70	37.88	-0.178	-2.301
178.73	38.06	-0.178	-2.302
178.76	38.19	-0.178	-2.302
178.79	38.36	-0.178	-2.302
178.81	38.47	-0.178	-2.302
178.85	38.64	-0.178	-2.302
178.87	38.76	-0.178	-2.303
178.91	38.94	-0.178	-2.303
178.94	39.09	-0.178	-2.302
178.96	39.19	-0.178	-2.302
179.00	39.39	-0.178	-2.303
179.02	39.49	-0.178	-2.302
179.05	39.66	-0.179	-2.303
179.09	39.86	-0.179	-2.303
179.10	39.93	-0.179	-2.303
179.14	40.11	-0.179	-2.303
179.17	40.27	-0.179	-2.303
179.20	40.43	-0.179	-2.304
179.24	40.61	-0.179	-2.304
179.26	40.71	-0.179	-2.304
179.30	40.89	-0.179	-2.304
179.31	40.97	-0.179	-2.304
179.36	41.20	-0.179	-2.305
179.39	41.34	-0.179	-2.305
179.41	41.47	-0.179	-2.305
179.45	41.64	-0.179	-2.305
179.47	41.77	-0.179	-2.305
179.50	41.93	-0.179	-2.306
179.53	42.07	-0.179	-2.306
179.56	42.22	-0.179	-2.306
179.60	42.40	-0.179	-2.306
179.63	42.56	-0.179	-2.306
179.65	42.66	-0.179	-2.307
179.68	42.82	-0.179	-2.307
179.72	43.00	-0.179	-2.307
179.74	43.10	-0.179	-2.307
179.77	43.26	-0.179	-2.307
179.81	43.45	-0.179	-2.308
179.83	43.54	-0.179	-2.308
179.87	43.77	-0.179	-2.308
179.89	43.86	-0.179	-2.308
179.92	44.02	-0.179	-2.308
179.96	44.21	-0.179	-2.308
179.98	44.33	-0.179	-2.308
180.02	44.48	-0.179	-2.309
180.05	44.65	-0.179	-2.309
180.08	44.82	-0.179	-2.309
180.11	44.94	-0.179	-2.309
180.13	45.09	-0.179	-2.309
180.16	45.20	-0.179	-2.309
180.19	45.38	-0.179	-2.309
180.23	45.56	-0.179	-2.310
180.25	45.65	-0.179	-2.310
180.29	45.84	-0.179	-2.310
180.32	45.98	-0.179	-2.311
180.35	46.13	-0.179	-2.311
180.37	46.26	-0.179	-2.311
180.40	46.43	-0.179	-2.310
180.44	46.60	-0.179	-2.311
180.46	46.70	-0.179	-2.311
180.50	46.89	-0.179	-2.312
180.53	47.04	-0.179	-2.312
180.55	47.17	-0.179	-2.312
180.59	47.35	-0.179	-2.312
180.62	47.49	-0.179	-2.313
180.64	47.61	-0.179	-2.313
180.68	47.80	-0.179	-2.313
180.70	47.94	-0.179	-2.313
180.74	48.11	-0.179	-2.313
180.76	48.23	-0.179	-2.313
180.80	48.41	-0.179	-2.314
180.82	48.52	-0.179	-2.314
180.86	48.71	-0.179	-2.314
180.88	48.80	-0.179	-2.314
180.90	48.93	-0.179	-2.315
180.95	49.16	-0.179	-2.315
180.98	49.31	-0.179	-2.315
181.00	49.42	-0.179	-2.315
181.04	49.60	-0.179	-2.315
181.08	49.79	-0.179	-2.315
181.10	49.90	-0.179	-2.315
181.13	50.05	-0.180	-2.316
181.16	50.21	-0.180	-2.316
181.18	50.34	-0.180	-2.316
181.21	50.45	-0.180	-2.316
181.24	50.62	-0.180	-2.316
181.27	50.77	-0.180	-2.317
181.31	50.96	-0.180	-2.317
181.34	51.10	-0.180	-2.317
181.37	51.26	-0.180	-2.317
181.39	51.38	-0.180	-2.318
181.43	51.57	-0.180	-2.318
181.46	51.70	-0.180	-2.318
181.49	51.85	-0.180	-2.318
181.51	51.96	-0.180	-2.318
181.55	52.15	-0.180	-2.318
181.57	52.26	-0.180	-2.318
181.61	52.45	-0.180	-2.318
181.63	52.58	-0.180	-2.318
181.67	52.76	-0.180	-2.318
181.70	52.90	-0.180	-2.319
181.73	53.07	-0.180	-2.319
181.75	53.19	-0.180	-2.319
181.77	53.27	-0.180	-2.319
181.81	53.47	-0.180	-2.320
181.85	53.66	-0.180	-2.320
181.88	53.79	-0.180	-2.320
181.90	53.94	-0.180	-2.320
181.94	54.10	-0.180	-2.321
181.97	54.25	-0.180	-2.321
181.99	54.38	-0.180	-2.321
182.03	54.56	-0.180	-2.321
182.06	54.71	-0.180	-2.322
182.08	54.84	-0.180	-2.321
182.12	54.99	-0.180	-2.322
182.14	55.13	-0.180	-2.322
182.17	55.28	-0.180	-2.322
182.21	55.46	-0.180	-2.322
182.23	55.59	-0.180	-2.322
182.27	55.74	-0.180	-2.323
182.29	55.88	-0.180	-2.323
182.33	56.05	-0.180	-2.323
182.36	56.20	-0.180	-2.323
182.39	56.35	-0.180	-2.323
182.41	56.48	-0.180	-2.323
182.45	56.65	-0.180	-2.323
182.47	56.78	-0.180	-2.324
182.51	56.97	-0.180	-2.324
182.53	57.09	-0.180	-2.324
182.57	57.27	-0.180	-2.324
182.59	57.38	-0.180	-2.324
182.62	57.53	-0.180	-2.325
182.66	57.70	-0.180	-2.325
182.68	57.83	-0.180	-2.325
182.72	57.99	-0.180	-2.325
182.74	58.11	-0.180	-2.325
182.77	58.28	-0.180	-2.326
182.81	58.46	-0.180	-2.326
182.84	58.60	-0.180	-2.326
182.87	58.77	-0.180	-2.326
182.89	58.88	-0.180	-2.327
182.93	59.06	-0.180	-2.327
182.96	59.20	-0.180	-2.327
182.99	59.36	-0.180	-2.327
183.01	59.49	-0.180	-2.327
183.05	59.64	-0.180	-2.328
183.08	59.84	-0.180	-2.328
183.10	59.93	-0.180	-2.328
183.13	60.04	-0.180	-2.328
183.17	60.25	-0.180	-2.328
183.20	60.39	-0.181	-2.329
183.22	60.54	-0.181	-2.329
183.25	60.69	-0.181	-2.329
183.28	60.82	-0.181	-2.329
183.32	61.01	-0.181	-2.329
183.33	61.09	-0.181	-2.330
183.38	61.31	-0.181	-2.330
183.41	61.49	-0.181	-2.330
183.43	61.58	-0.181	-2.330
183.46	61.72	-0.181	-2.330
183.49	61.89	-0.181	-2.330
183.52	62.01	-0.181	-2.331
183.56	62.20	-0.181	-2.331
183.59	62.36	-0.181	-2.331
183.61	62.47	-0.181	-2.331
183.65	62.65	-0.181	-2.331
183.68	62.81	-0.181	-2.331
183.72	63.02	-0.181	-2.332
183.78	63.32	-0.181	-2.332
183.75	63.15	-0.181	-2.331
183.79	63.35	-0.181	-2.332
183.82	63.53	-0.181	-2.332
183.86	63.71	-0.181	-2.332
183.89	63.86	-0.181	-2.332
183.92	64.00	-0.181	-2.332
183.93	64.09	-0.181	-2.333
183.97	64.29	-0.181	-2.333
184.01	64.46	-0.181	-2.334
184.03	64.60	-0.181	-2.334
184.07	64.76	-0.181	-2.334
184.09	64.87	-0.181	-2.334
184.13	65.06	-0.181	-2.335
184.15	65.16	-0.181	-2.335
184.18	65.34	-0.181	-2.335
184.22	65.51	-0.181	-2.335
184.24	65.61	-0.181	-2.336
184.27	65.78	-0.181	-2.336
184.31	65.96	-0.181	-2.336
184.33	66.09	-0.181	-2.336
184.35	66.20	-0.181	-2.337
184.40	66.44	-0.181	-2.337
184.42	66.50	-0.181	-2.337
184.46	66.71	-0.181	-2.338
184.48	66.81	-0.181	-2.338
184.51	66.98	-0.181	-2.338
184.55	67.16	-0.181	-2.338
184.57	67.28	-0.181	-2.339
184.60	67.45	-0.181	-2.338
184.63	67.56	-0.181	-2.339
184.67	67.77	-0.181	-2.339
184.70	67.90	-0.181	-2.339
184.72	68.04	-0.181	-2.339
184.75	68.18	-0.181	-2.339
184.79	68.38	-0.181	-2.339
184.82	68.50	-0.181	-2.340
184.84	68.61	-0.181	-2.340
184.88	68.82	-0.181	-2.340
184.91	68.96	-0.181	-2.341
184.93	69.08	-0.181	-2.341
184.97	69.26	-0.181	-2.341
184.99	69.38	-0.181	-2.341
185.03	69.56	-0.181	-2.341
185.05	69.70	-0.182	-2.342
185.09	69.88	-0.182	-2.342
185.11	69.99	-0.182	-2.342
185.15	70.18	-0.182	-2.342
185.18	70.31	-0.182	-2.343
185.20	70.45	-0.182	-2.343
185.23	70.55	-0.182	-2.343
185.26	70.74	-0.182	-2.343
185.29	70.88	-0.182	-2.344
185.33	71.06	-0.182	-2.344
185.35	71.16	-0.182	-2.344
185.38	71.35	-0.182	-2.344
185.42	71.51	-0.182	-2.345
185.45	71.65	-0.182	-2.345
185.48	71.82	-0.182	-2.346
185.50	71.91	-0.182	-2.346
185.53	72.09	-0.182	-2.346
185.57	72.25	-0.182	-2.346
185.60	72.40	-0.182	-2.347
185.63	72.55	-0.182	-2.347
185.66	72.71	-0.182	-2.347
185.68	72.84	-0.182	-2.348
185.71	72.97	-0.182	-2.348
185.75	73.16	-0.182	-2.348
185.78	73.30	-0.182	-2.349
185.80	73.45	-0.182	-2.349
185.83	73.57	-0.182	-2.350
185.87	73.75	-0.182	-2.350
185.90	73.92	-0.182	-2.350
185.93	74.06	-0.182	-2.350
185.95	74.20	-0.182	-2.350
185.99	74.37	-0.182	-2.350
186.02	74.52	-0.182	-2.351
186.05	74.65	-0.182	-2.351
186.07	74.80	-0.182	-2.351
186.10	74.93	-0.182	-2.351
186.14	75.11	-0.182	-2.351
186.16	75.22	-0.182	-2.351
186.20	75.41	-0.182	-2.352
186.23	75.57	-0.182	-2.352
186.25	75.70	-0.182	-2.352
186.28	75.85	-0.182	-2.352
186.31	75.99	-0.182	-2.352
186.35	76.16	-0.182	-2.353
186.38	76.31	-0.182	-2.353
186.40	76.43	-0.182	-2.354
186.43	76.60	-0.182	-2.354
186.47	76.75	-0.182	-2.354
186.49	76.90	-0.182	-2.354
186.53	77.06	-0.183	-2.355
186.54	77.14	-0.183	-2.355
186.59	77.37	-0.183	-2.355
186.62	77.53	-0.183	-2.355
186.64	77.65	-0.183	-2.355
186.68	77.82	-0.183	-2.356
186.70	77.95	-0.183	-2.356
186.74	78.12	-0.183	-2.356
186.77	78.27	-0.183	-2.356
186.80	78.41	-0.183	-2.357
186.82	78.54	-0.183	-2.357
186.85	78.70	-0.183	-2.357
186.88	78.86	-0.183	-2.358
186.92	79.01	-0.183	-2.358
186.95	79.17	-0.183	-2.359
186.98	79.31	-0.183	-2.359
187.01	79.47	-0.183	-2.359
187.04	79.61	-0.183	-2.360
187.07	79.76	-0.183	-2.360
187.10	79.92	-0.183	-2.360
187.12	80.02	-0.183	-2.360
187.15	80.20	-0.183	-2.360
187.19	80.36	-0.183	-2.361
187.21	80.47	-0.183	-2.361
187.23	80.60	-0.183	-2.361
187.27	80.80	-0.183	-2.362
187.30	80.94	-0.183	-2.362
187.33	81.07	-0.183	-2.363
187.37	81.26	-0.183	-2.363
187.39	81.40	-0.183	-2.363
187.43	81.56	-0.183	-2.364
187.46	81.72	-0.183	-2.364
187.48	81.81	-0.183	-2.364
187.51	81.97	-0.183	-2.364
187.55	82.16	-0.183	-2.364
187.57	82.27	-0.183	-2.364
187.60	82.45	-0.183	-2.365
187.63	82.60	-0.183	-2.365
187.66	82.75	-0.183	-2.365
187.70	82.93	-0.183	-2.365
187.73	83.07	-0.183	-2.366
187.76	83.22	-0.183	-2.366
187.79	83.37	-0.183	-2.366
187.82	83.52	-0.183	-2.366
187.84	83.65	-0.183	-2.367
187.87	83.78	-0.184	-2.367
187.90	83.92	-0.184	-2.368
187.93	84.07	-0.184	-2.368
187.97	84.26	-0.184	-2.368
187.99	84.40	-0.184	-2.369
188.03	84.56	-0.184	-2.369
188.06	84.72	-0.184	-2.369
188.08	84.85	-0.184	-2.370
188.11	85.00	-0.184	-2.370
188.15	85.18	-0.184	-2.371
188.17	85.30	-0.184	-2.371
188.20	85.46	-0.184	-2.372
188.23	85.60	-0.184	-2.372
188.27	85.78	-0.184	-2.373
188.30	85.91	-0.184	-2.373
188.33	86.07	-0.184	-2.374
188.36	86.22	-0.184	-2.374
188.38	86.36	-0.184	-2.374
188.42	86.52	-0.184	-2.374
188.43	86.61	-0.184	-2.374
188.48	86.81	-0.184	-2.375
188.51	86.97	-0.184	-2.375
188.53	87.10	-0.184	-2.375
188.57	87.27	-0.184	-2.375
188.59	87.39	-0.184	-2.375
188.63	87.57	-0.184	-2.375
188.65	87.71	-0.184	-2.375
188.68	87.86	-0.184	-2.376
188.72	88.02	-0.184	-2.376
188.75	88.19	-0.184	-2.376
188.77	88.28	-0.184	-2.376
188.80	88.45	-0.184	-2.376
188.83	88.59	-0.184	-2.376
188.87	88.78	-0.184	-2.376
188.88	88.86	-0.184	-2.376
188.93	89.09	-0.184	-2.376
188.96	89.22	-0.184	-2.376
188.98	89.35	-0.184	-2.376
189.02	89.54	-0.184	-2.376
189.04	89.64	-0.184	-2.376
189.07	89.78	-0.184	-2.376
189.10	89.95	-0.184	-2.376
189.13	90.10	-0.184	-2.377
189.17	90.27	-0.184	-2.377
189.20	90.41	-0.184	-2.377
189.22	90.54	-0.184	-2.377
189.25	90.71	-0.184	-2.377
189.28	90.84	-0.184	-2.377
189.32	91.03	-0.184	-2.378
189.35	91.19	-0.184	-2.378
189.37	91.30	-0.184	-2.378
189.40	91.42	-0.184	-2.378
189.43	91.59	-0.184	-2.378
189.47	91.77	-0.184	-2.378
189.50	91.92	-0.184	-2.378
189.52	92.03	-0.184	-2.378
189.55	92.20	-0.184	-2.378
189.58	92.34	-0.184	-2.378
189.62	92.52	-0.184	-2.378
189.64	92.64	-0.184	-2.378
189.67	92.79	-0.184	-2.378
189.70	92.94	-0.184	-2.378
189.74	93.14	-0.184	-2.378
189.76	93.25	-0.184	-2.378
189.80	93.42	-0.184	-2.377
189.82	93.54	-0.184	-2.378
189.85	93.71	-0.184	-2.378
189.89	93.89	-0.184	-2.378
189.92	94.04	-0.184	-2.378
189.94	94.14	-0.184	-2.377
189.98	94.32	-0.184	-2.378
190.00	94.46	-0.184	-2.378
190.04	94.62	-0.184	-2.378
190.07	94.78	-0.184	-2.378
190.09	94.90	-0.184	-2.378
190.12	95.05	-0.184	-2.378
190.15	95.20	-0.184	-2.378
190.19	95.39	-0.184	-2.378
190.22	95.54	-0.184	-2.378
190.25	95.66	-0.184	-2.378
190.28	95.84	-0.184	-2.378
190.30	95.95	-0.184	-2.378
190.33	96.09	-0.184	-2.379
190.37	96.27	-0.184	-2.379
190.40	96.44	-0.184	-2.379
190.42	96.55	-0.184	-2.380
190.45	96.68	-0.184	-2.380
190.48	96.86	-0.185	-2.380
190.51	97.00	-0.185	-2.380
190.55	97.16	-0.185	-2.381
190.58	97.31	-0.185	-2.381
190.60	97.45	-0.185	-2.382
190.64	97.63	-0.185	-2.382
190.67	97.77	-0.185	-2.383
190.70	97.91	-0.185	-2.383
190.72	98.04	-0.185	-2.384
190.76	98.23	-0.185	-2.385
190.78	98.35	-0.185	-2.385
190.82	98.53	-0.185	-2.386
190.84	98.65	-0.185	-2.387
190.88	98.83	-0.185	-2.389
190.90	98.95	-0.185	-2.391
190.94	99.12	-0.186	-2.394
190.96	99.26	-0.186	-2.396
190.99	99.39	-0.186	-2.397
191.03	99.59	-0.186	-2.401
191.05	99.70	-0.186	-2.403
191.09	99.89	-0.187	-2.406
191.12	100.02	-0.187	-2.408
191.15	100.17	-0.187	-2.411
191.18	100.32	-0.187	-2.413
191.21	100.47	-0.187	-2.416
191.23	100.60	-0.187	-2.418
191.27	100.76	-0.188	-2.420
191.29	100.90	-0.188	-2.422
191.33	101.06	-0.188	-2.423
191.35	101.19	-0.188	-2.424
191.39	101.39	-0.188	-2.426
191.42	101.55	-0.188	-2.426
191.45	101.68	-0.188	-2.426
191.47	101.76	-0.188	-2.426
191.51	101.97	-0.188	-2.424
191.54	102.15	-0.188	-2.422
191.55	102.21	-0.188	-2.421
191.60	102.44	-0.187	-2.418
191.62	102.53	-0.187	-2.416
191.66	102.72	-0.187	-2.414
191.68	102.86	-0.187	-2.412
191.71	103.00	-0.187	-2.410
191.75	103.21	-0.187	-2.408
191.78	103.34	-0.187	-2.407
191.80	103.46	-0.186	-2.406
191.83	103.60	-0.186	-2.405
191.87	103.78	-0.186	-2.404
191.89	103.91	-0.186	-2.403
191.92	104.06	-0.186	-2.403
191.96	104.23	-0.186	-2.402
191.99	104.37	-0.186	-2.402
192.02	104.52	-0.186	-2.402
192.04	104.63	-0.186	-2.402
192.07	104.81	-0.186	-2.401
192.10	104.94	-0.186	-2.402
192.13	105.12	-0.186	-2.402
192.16	105.26	-0.186	-2.402
192.20	105.42	-0.186	-2.402
192.23	105.57	-0.186	-2.402
192.24	105.66	-0.186	-2.402
192.28	105.87	-0.186	-2.402
192.31	105.99	-0.186	-2.403
192.35	106.18	-0.186	-2.403
192.36	106.26	-0.186	-2.403
192.41	106.49	-0.186	-2.403
192.43	106.60	-0.186	-2.403
192.46	106.76	-0.186	-2.403
192.49	106.89	-0.186	-2.403
192.53	107.08	-0.186	-2.404
192.55	107.21	-0.186	-2.404
192.58	107.36	-0.186	-2.405
192.61	107.49	-0.186	-2.405
192.65	107.69	-0.186	-2.405
192.68	107.82	-0.187	-2.406
192.70	107.95	-0.187	-2.406
192.74	108.13	-0.187	-2.406
192.76	108.26	-0.187	-2.407
192.79	108.41	-0.187	-2.407
192.82	108.56	-0.187	-2.407
192.85	108.69	-0.187	-2.406
192.88	108.87	-0.187	-2.407
192.91	109.01	-0.187	-2.407
192.93	109.11	-0.187	-2.407
192.97	109.30	-0.187	-2.407
193.01	109.48	-0.187	-2.407
193.03	109.62	-0.187	-2.408
193.07	109.78	-0.187	-2.409
193.10	109.93	-0.187	-2.409
193.13	110.09	-0.187	-2.409
193.16	110.23	-0.187	-2.410
193.18	110.36	-0.187	-2.410
193.22	110.54	-0.187	-2.411
193.26	110.73	-0.187	-2.411
193.27	110.77	-0.187	-2.411
193.31	110.99	-0.187	-2.412
193.33	111.09	-0.187	-2.412
193.37	111.28	-0.187	-2.412
193.39	111.40	-0.187	-2.412
193.43	111.57	-0.187	-2.413
193.45	111.70	-0.187	-2.413
193.48	111.87	-0.187	-2.413
193.51	112.00	-0.187	-2.413
193.55	112.17	-0.187	-2.413
193.58	112.33	-0.187	-2.413
193.60	112.47	-0.187	-2.414
193.63	112.62	-0.187	-2.414
193.67	112.77	-0.187	-2.414
193.70	112.92	-0.187	-2.414
193.73	113.09	-0.187	-2.414
193.75	113.19	-0.187	-2.415
193.78	113.37	-0.187	-2.415
193.81	113.51	-0.187	-2.415
193.85	113.69	-0.187	-2.415
193.87	113.78	-0.187	-2.415
193.91	113.99	-0.187	-2.416
193.94	114.13	-0.187	-2.416
193.96	114.26	-0.187	-2.416
193.99	114.39	-0.187	-2.416
194.03	114.59	-0.187	-2.416
194.05	114.72	-0.187	-2.416
194.09	114.89	-0.187	-2.416
194.12	115.03	-0.187	-2.416
194.15	115.17	-0.187	-2.416
194.18	115.32	-0.187	-2.416
194.20	115.47	-0.187	-2.416
194.24	115.63	-0.187	-2.417
194.27	115.77	-0.187	-2.417
194.29	115.90	-0.187	-2.417
194.33	116.07	-0.187	-2.417
194.35	116.20	-0.187	-2.418
194.39	116.38	-0.187	-2.418
194.40	116.46	-0.187	-2.418
194.43	116.61	-0.187	-2.418
194.48	116.84	-0.188	-2.419
194.51	117.00	-0.188	-2.419
194.53	117.10	-0.188	-2.420
194.56	117.24	-0.188	-2.420
194.60	117.42	-0.188	-2.420
194.63	117.57	-0.188	-2.420
194.65	117.72	-0.188	-2.420
194.68	117.87	-0.188	-2.420
194.71	118.00	-0.188	-2.421
194.75	118.19	-0.188	-2.421
194.78	118.35	-0.188	-2.421
194.80	118.47	-0.188	-2.421
194.84	118.64	-0.188	-2.421
194.86	118.75	-0.188	-2.421
194.91	118.99	-0.188	-2.422
194.97	119.29
194.91	118.98	-0.188	-2.422
194.97	119.28
194.88	118.87	-0.188	-2.421