File: data/thermal_properties/102323_9_PEGMEA_1_PEGDA_0_none_0_none_1.txt
Filename	10-23-23-pegda-pegmea-0a380-0litfsi
Instrument name	DSC2A-01583 (172.23.160.11)
Operator	JJS
rundate	10/7/2024
Sample name	10-23-23-pegda-pegmea-0a380-0litfsi
proceduresegments	Ramp 5.00 °C/min to 120.00 °C; Ramp 5.00 °C/min to -100.00 °C; Ramp 5.00 °C/min to 120.00 °C; Ramp 5.00 °C/min to -100.00 °C; Ramp 5.00 °C/min to 120.00 °C
[step]
Ramp 5.00 °C/min to -100.00 °C
Time	Temperature	Heat Flow (Normalized)
min	°C	W/g
19.01	119.16	-0.187
18.97	118.98	-0.187
19.03	119.29	-0.187
19.08	119.48	-0.191
19.11	119.52	-0.204
19.14	119.51	-0.201
19.17	119.46	-0.168
19.20	119.39	-0.124
19.23	119.31	-0.088
19.25	119.23	-0.057
19.29	119.11	-0.023
19.32	119.01	0.001
19.34	118.89	0.023
19.37	118.77	0.041
19.41	118.62	0.059
19.44	118.48	0.073
19.47	118.35	0.083
19.49	118.23	0.090
19.53	118.08	0.099
19.56	117.94	0.105
19.58	117.81	0.109
19.62	117.65	0.113
19.64	117.52	0.116
19.67	117.39	0.118
19.71	117.20	0.122
19.74	117.05	0.123
19.77	116.91	0.125
19.79	116.78	0.126
19.83	116.63	0.127
19.86	116.48	0.127
19.88	116.33	0.128
19.92	116.16	0.128
19.94	116.03	0.129
19.98	115.87	0.129
20.01	115.72	0.129
20.03	115.58	0.129
20.07	115.43	0.130
20.09	115.29	0.130
20.12	115.15	0.130
20.16	114.97	0.131
20.18	114.84	0.131
20.22	114.68	0.131
20.24	114.54	0.131
20.27	114.40	0.131
20.30	114.25	0.131
20.33	114.09	0.131
20.36	113.96	0.132
20.39	113.79	0.132
20.42	113.65	0.132
20.46	113.49	0.132
20.49	113.33	0.132
20.52	113.18	0.132
20.55	113.03	0.132
20.58	112.88	0.132
20.60	112.75	0.132
20.63	112.59	0.132
20.67	112.43	0.132
20.70	112.28	0.132
20.72	112.15	0.133
20.76	111.99	0.133
20.78	111.85	0.133
20.81	111.70	0.133
20.84	111.55	0.133
20.88	111.39	0.133
20.91	111.22	0.133
20.93	111.10	0.133
20.97	110.93	0.133
20.99	110.81	0.133
21.03	110.64	0.133
21.05	110.50	0.133
21.09	110.34	0.133
21.12	110.19	0.133
21.15	110.04	0.133
21.18	109.87	0.133
21.21	109.75	0.133
21.23	109.60	0.133
21.27	109.44	0.133
21.29	109.31	0.133
21.33	109.11	0.133
21.36	108.98	0.133
21.39	108.84	0.133
21.42	108.70	0.133
21.45	108.54	0.133
21.48	108.37	0.133
21.50	108.26	0.133
21.54	108.08	0.133
21.57	107.95	0.133
21.59	107.81	0.133
21.62	107.66	0.133
21.66	107.49	0.133
21.68	107.35	0.133
21.71	107.21	0.133
21.74	107.05	0.133
21.77	106.92	0.133
21.81	106.73	0.133
21.84	106.59	0.133
21.87	106.43	0.133
21.90	106.29	0.133
21.92	106.17	0.133
21.96	106.00	0.133
21.99	105.84	0.133
22.02	105.67	0.133
22.08	105.37	0.133
22.03	105.60	0.133
22.09	105.30	0.133
22.13	105.11	0.133
22.17	104.94	0.133
22.19	104.81	0.133
22.23	104.65	0.133
22.26	104.49	0.133
22.28	104.35	0.133
22.32	104.19	0.133
22.34	104.06	0.133
22.38	103.90	0.133
22.41	103.75	0.133
22.43	103.60	0.133
22.47	103.44	0.133
22.49	103.30	0.132
22.53	103.14	0.132
22.55	103.01	0.132
22.58	102.85	0.132
22.62	102.70	0.132
22.65	102.54	0.132
22.68	102.37	0.132
22.71	102.23	0.132
22.73	102.10	0.132
22.77	101.94	0.132
22.79	101.83	0.132
22.83	101.64	0.132
22.86	101.49	0.132
22.88	101.35	0.132
22.92	101.19	0.132
22.95	101.04	0.132
22.98	100.87	0.132
23.00	100.77	0.132
23.03	100.61	0.132
23.07	100.44	0.132
23.10	100.29	0.132
23.12	100.16	0.132
23.16	99.97	0.132
23.18	99.86	0.132
23.22	99.69	0.132
23.25	99.55	0.132
23.28	99.40	0.132
23.31	99.25	0.132
23.33	99.10	0.132
23.36	98.96	0.132
23.39	98.81	0.132
23.43	98.65	0.132
23.45	98.51	0.132
23.48	98.35	0.132
23.52	98.19	0.132
23.54	98.05	0.132
23.58	97.90	0.132
23.61	97.75	0.132
23.63	97.60	0.132
23.67	97.43	0.132
23.70	97.30	0.132
23.73	97.14	0.132
23.76	97.00	0.132
23.78	96.86	0.132
23.81	96.71	0.132
23.84	96.55	0.132
23.88	96.40	0.132
23.90	96.26	0.132
23.94	96.09	0.132
23.97	95.94	0.132
23.99	95.81	0.131
24.02	95.68	0.131
24.05	95.52	0.131
24.08	95.36	0.131
24.12	95.20	0.131
24.15	95.05	0.131
24.18	94.89	0.131
24.21	94.75	0.131
24.24	94.59	0.131
24.27	94.46	0.131
24.29	94.31	0.131
24.33	94.14	0.131
24.36	94.00	0.131
24.38	93.86	0.131
24.42	93.71	0.131
24.44	93.56	0.131
24.47	93.43	0.131
24.50	93.27	0.131
24.53	93.12	0.131
24.57	92.96	0.131
24.59	92.82	0.131
24.63	92.64	0.131
24.66	92.51	0.131
24.68	92.37	0.131
24.72	92.19	0.131
24.75	92.05	0.131
24.78	91.90	0.131
24.80	91.77	0.131
24.84	91.60	0.131
24.87	91.44	0.131
24.89	91.31	0.131
24.93	91.16	0.131
24.95	91.02	0.131
24.98	90.86	0.131
25.02	90.69	0.131
25.04	90.58	0.131
25.08	90.40	0.131
25.11	90.24	0.131
25.13	90.11	0.131
25.17	89.92	0.131
25.19	89.81	0.131
25.23	89.66	0.131
25.26	89.51	0.131
25.28	89.37	0.131
25.32	89.19	0.131
25.35	89.04	0.131
25.38	88.91	0.131
25.40	88.77	0.131
25.43	88.62	0.131
25.47	88.45	0.131
25.49	88.31	0.131
25.52	88.17	0.131
25.56	88.01	0.131
25.59	87.85	0.131
25.62	87.70	0.131
25.65	87.55	0.131
25.67	87.43	0.131
25.71	87.25	0.131
25.73	87.11	0.131
25.77	86.96	0.131
25.80	86.80	0.131
25.83	86.65	0.131
25.86	86.51	0.131
25.89	86.35	0.131
25.92	86.20	0.134
25.95	86.05	0.134
25.98	85.91	0.133
26.01	85.76	0.131
26.03	85.62	0.136
26.07	85.46	0.134
26.10	85.31	0.134
26.13	85.16	0.133
26.16	84.98	0.133
26.19	84.86	0.133
26.22	84.71	0.133
26.25	84.56	0.133
26.28	84.41	0.133
26.31	84.26	0.133
26.33	84.16	0.132
26.37	83.97	0.132
26.39	83.83	0.132
26.42	83.68	0.132
26.46	83.51	0.132
26.48	83.37	0.132
26.51	83.24	0.132
26.55	83.06	0.132
26.58	82.92	0.132
26.60	82.77	0.132
26.63	82.62	0.132
26.66	82.48	0.132
26.70	82.30	0.132
26.73	82.17	0.132
26.76	82.01	0.132
26.79	81.85	0.132
26.82	81.72	0.131
26.85	81.55	0.131
26.88	81.42	0.131
26.91	81.27	0.131
26.94	81.11	0.131
26.97	80.96	0.131
26.99	80.85	0.131
27.02	80.68	0.131
27.06	80.50	0.131
27.09	80.35	0.131
27.12	80.22	0.131
27.15	80.04	0.131
27.18	79.88	0.131
27.21	79.76	0.131
27.24	79.60	0.131
27.27	79.46	0.131
27.29	79.32	0.131
27.33	79.14	0.131
27.35	79.03	0.131
27.38	78.87	0.131
27.42	78.72	0.131
27.45	78.56	0.131
27.48	78.42	0.131
27.52	78.22	0.130
27.54	78.11	0.130
27.57	77.97	0.130
27.59	77.83	0.130
27.63	77.66	0.130
27.66	77.49	0.130
27.68	77.39	0.130
27.72	77.22	0.130
27.74	77.08	0.130
27.78	76.89	0.130
27.80	76.78	0.130
27.83	76.62	0.130
27.87	76.46	0.130
27.90	76.31	0.130
27.93	76.17	0.130
27.96	76.00	0.130
27.98	75.88	0.130
28.02	75.72	0.130
28.05	75.56	0.130
28.08	75.42	0.130
28.11	75.26	0.130
28.14	75.11	0.130
28.17	74.96	0.130
28.19	74.82	0.130
28.23	74.67	0.130
28.26	74.51	0.130
28.28	74.38	0.130
28.32	74.22	0.130
28.34	74.07	0.130
28.38	73.92	0.130
28.41	73.77	0.130
28.44	73.61	0.130
28.46	73.48	0.130
28.49	73.35	0.130
28.53	73.17	0.130
28.56	73.01	0.130
28.59	72.87	0.130
28.61	72.74	0.130
28.64	72.58	0.130
28.68	72.42	0.130
28.70	72.30	0.130
28.73	72.12	0.130
28.77	71.97	0.130
28.80	71.82	0.130
28.83	71.64	0.130
28.86	71.52	0.129
28.89	71.37	0.129
28.92	71.22	0.129
28.94	71.07	0.129
28.98	70.92	0.129
29.00	70.78	0.129
29.04	70.62	0.129
29.07	70.47	0.129
29.09	70.33	0.129
29.12	70.18	0.129
29.15	70.03	0.129
29.19	69.87	0.129
29.21	69.73	0.129
29.24	69.58	0.129
29.28	69.42	0.129
29.31	69.27	0.129
29.34	69.12	0.129
29.37	68.96	0.129
29.40	68.82	0.129
29.43	68.67	0.129
29.46	68.51	0.129
29.48	68.38	0.129
29.52	68.22	0.129
29.54	68.08	0.129
29.58	67.93	0.129
29.61	67.77	0.130
29.63	67.63	0.130
29.67	67.48	0.130
29.70	67.32	0.130
29.73	67.18	0.130
29.76	67.01	0.130
29.78	66.88	0.130
29.82	66.71	0.130
29.84	66.59	0.130
29.88	66.43	0.130
29.91	66.28	0.130
29.93	66.13	0.130
29.97	65.97	0.130
30.00	65.82	0.130
30.03	65.65	0.129
30.06	65.51	0.129
30.08	65.40	0.129
30.12	65.21	0.129
30.15	65.07	0.129
30.18	64.93	0.129
30.21	64.76	0.129
30.23	64.63	0.129
30.27	64.47	0.129
30.29	64.33	0.129
30.33	64.18	0.129
30.36	64.01	0.129
30.38	63.88	0.129
30.42	63.73	0.129
30.44	63.60	0.129
30.48	63.41	0.129
30.50	63.32	0.129
30.53	63.13	0.129
30.57	62.98	0.129
30.59	62.85	0.129
30.63	62.66	0.129
30.66	62.51	0.129
30.69	62.36	0.129
30.72	62.23	0.129
30.74	62.08	0.129
30.77	61.95	0.129
30.81	61.78	0.129
30.84	61.61	0.129
30.87	61.47	0.129
30.90	61.32	0.129
30.92	61.19	0.129
30.96	61.02	0.129
30.99	60.87	0.129
31.02	60.72	0.129
31.04	60.58	0.129
31.08	60.42	0.129
31.11	60.27	0.129
31.13	60.13	0.129
31.16	59.99	0.129
31.19	59.87	0.129
31.22	59.69	0.129
31.26	59.52	0.129
31.28	59.39	0.129
31.33	59.16	0.129
31.39	58.86	0.129
31.33	59.13	0.129
31.39	58.83	0.129
31.43	58.63	0.128
31.47	58.48	0.128
31.50	58.33	0.128
31.53	58.17	0.128
31.56	58.03	0.128
31.59	57.88	0.128
31.62	57.72	0.128
31.64	57.59	0.128
31.68	57.43	0.128
31.71	57.28	0.128
31.73	57.14	0.128
31.77	56.98	0.128
31.79	56.86	0.128
31.82	56.69	0.128
31.85	56.54	0.128
31.89	56.38	0.128
31.92	56.23	0.128
31.94	56.09	0.128
31.98	55.94	0.128
32.01	55.77	0.128
32.03	55.64	0.128
32.07	55.48	0.128
32.09	55.34	0.128
32.13	55.18	0.128
32.15	55.04	0.128
32.19	54.88	0.128
32.22	54.73	0.128
32.25	54.57	0.128
32.27	54.44	0.128
32.31	54.29	0.128
32.33	54.14	0.128
32.36	53.99	0.128
32.42	53.72	0.128
32.38	53.89	0.128
32.44	53.59	0.128
32.49	53.38	0.128
32.52	53.21	0.128
32.55	53.08	0.128
32.58	52.94	0.128
32.61	52.78	0.128
32.63	52.65	0.128
32.67	52.45	0.128
32.69	52.36	0.128
32.72	52.20	0.128
32.76	52.04	0.128
32.78	51.89	0.128
32.82	51.74	0.128
32.85	51.56	0.128
32.87	51.45	0.128
32.91	51.28	0.128
32.94	51.12	0.128
32.97	50.99	0.128
33.00	50.82	0.128
33.02	50.71	0.128
33.06	50.52	0.128
33.09	50.37	0.128
33.12	50.24	0.128
33.14	50.10	0.128
33.18	49.89	0.128
33.21	49.79	0.128
33.23	49.65	0.128
33.27	49.48	0.128
33.30	49.33	0.128
33.33	49.16	0.128
33.36	49.04	0.128
33.39	48.87	0.128
33.42	48.73	0.128
33.44	48.59	0.128
33.48	48.44	0.128
33.51	48.28	0.128
33.53	48.14	0.128
33.57	47.99	0.128
33.59	47.85	0.128
33.63	47.69	0.128
33.66	47.51	0.128
33.68	47.40	0.128
33.72	47.24	0.128
33.74	47.09	0.128
33.78	46.94	0.128
33.81	46.79	0.128
33.83	46.66	0.128
33.86	46.51	0.128
33.89	46.34	0.128
33.93	46.18	0.128
33.96	46.00	0.128
34.02	45.70	0.128
33.99	45.85	0.128
34.04	45.59	0.128
34.07	45.45	0.128
34.10	45.31	0.128
34.14	45.14	0.128
34.16	45.00	0.128
34.19	44.84	0.128
34.23	44.69	0.128
34.26	44.54	0.128
34.29	44.39	0.128
34.32	44.24	0.128
34.34	44.11	0.128
34.39	43.86	0.128
34.45	43.56	0.127
34.41	43.75	0.128
34.47	43.49	0.127
34.50	43.31	0.127
34.53	43.19	0.127
34.56	43.04	0.127
34.59	42.89	0.127
34.62	42.74	0.127
34.65	42.59	0.127
34.68	42.44	0.127
34.71	42.30	0.127
34.73	42.16	0.127
34.77	41.98	0.127
34.79	41.85	0.127
34.83	41.69	0.127
34.85	41.55	0.127
34.89	41.40	0.127
34.91	41.25	0.127
34.94	41.11	0.127
34.97	40.97	0.127
35.01	40.77	0.127
35.03	40.66	0.127
35.07	40.48	0.127
35.10	40.33	0.127
35.13	40.19	0.127
35.16	40.04	0.127
35.18	39.92	0.127
35.21	39.75	0.127
35.25	39.59	0.127
35.28	39.45	0.127
35.31	39.29	0.127
35.33	39.17	0.127
35.36	39.00	0.127
35.39	38.86	0.127
35.43	38.69	0.127
35.45	38.56	0.127
35.49	38.37	0.127
35.52	38.23	0.127
35.55	38.08	0.127
35.58	37.94	0.127
35.61	37.79	0.127
35.64	37.64	0.127
35.67	37.48	0.127
35.69	37.36	0.127
35.73	37.19	0.127
35.75	37.07	0.127
35.79	36.90	0.127
35.81	36.76	0.127
35.84	36.61	0.127
35.88	36.44	0.127
35.91	36.29	0.127
35.94	36.13	0.127
35.96	36.01	0.127
36.00	35.83	0.127
36.03	35.69	0.127
36.06	35.55	0.127
36.09	35.38	0.127
36.11	35.25	0.127
36.15	35.08	0.127
36.18	34.94	0.127
36.21	34.79	0.127
36.24	34.65	0.127
36.27	34.48	0.127
36.29	34.36	0.127
36.32	34.21	0.127
36.36	34.05	0.127
36.39	33.90	0.127
36.41	33.76	0.127
36.45	33.58	0.127
36.48	33.44	0.127
36.50	33.33	0.127
36.54	33.13	0.127
36.56	33.01	0.127
36.60	32.84	0.127
36.63	32.70	0.127
36.65	32.58	0.127
36.69	32.39	0.127
36.71	32.26	0.127
36.75	32.10	0.127
36.78	31.95	0.127
36.81	31.80	0.127
36.84	31.65	0.127
36.86	31.51	0.127
36.90	31.35	0.127
36.93	31.20	0.127
36.96	31.05	0.127
36.98	30.92	0.127
37.01	30.76	0.127
37.04	30.61	0.127
37.08	30.45	0.127
37.10	30.32	0.127
37.14	30.14	0.127
37.16	30.00	0.127
37.19	29.85	0.127
37.23	29.70	0.127
37.26	29.55	0.127
37.29	29.38	0.127
37.32	29.25	0.127
37.35	29.10	0.127
37.37	28.96	0.127
37.41	28.80	0.127
37.44	28.66	0.127
37.47	28.50	0.127
37.50	28.33	0.127
37.52	28.23	0.127
37.56	28.04	0.127
37.59	27.90	0.127
37.62	27.75	0.126
37.64	27.62	0.126
37.68	27.43	0.126
37.71	27.31	0.126
37.74	27.15	0.126
37.76	27.01	0.126
37.80	26.85	0.126
37.83	26.70	0.126
37.86	26.55	0.126
37.89	26.41	0.126
37.92	26.24	0.127
37.94	26.12	0.127
37.98	25.96	0.127
38.01	25.81	0.127
38.04	25.65	0.127
38.06	25.52	0.127
38.10	25.35	0.127
38.13	25.21	0.127
38.16	25.05	0.126
38.19	24.91	0.127
38.22	24.74	0.126
38.25	24.60	0.126
38.28	24.46	0.126
38.31	24.30	0.126
38.34	24.16	0.126
38.36	24.01	0.126
38.39	23.87	0.126
38.43	23.69	0.126
38.46	23.56	0.126
38.49	23.41	0.126
38.51	23.28	0.126
38.54	23.12	0.126
38.58	22.95	0.126
38.61	22.79	0.126
38.64	22.64	0.126
38.67	22.49	0.126
38.70	22.35	0.126
38.73	22.21	0.126
38.76	22.05	0.126
38.79	21.89	0.126
38.81	21.76	0.126
38.84	21.62	0.126
38.88	21.45	0.126
38.91	21.30	0.126
38.93	21.17	0.126
38.96	21.01	0.126
39.00	20.85	0.126
39.03	20.70	0.126
39.05	20.57	0.126
39.09	20.41	0.126
39.12	20.25	0.126
39.14	20.13	0.126
39.17	19.98	0.126
39.21	19.81	0.126
39.24	19.65	0.126
39.26	19.52	0.126
39.30	19.35	0.126
39.33	19.21	0.126
39.36	19.05	0.126
39.38	18.93	0.126
39.42	18.75	0.126
39.45	18.60	0.126
39.48	18.46	0.126
39.51	18.31	0.126
39.54	18.16	0.126
39.56	18.01	0.126
39.59	17.87	0.126
39.62	17.72	0.126
39.66	17.54	0.126
39.68	17.43	0.126
39.71	17.28	0.126
39.75	17.10	0.126
39.78	16.96	0.126
39.81	16.80	0.126
39.84	16.63	0.126
39.86	16.52	0.126
39.90	16.35	0.126
39.92	16.22	0.126
39.96	16.06	0.126
39.99	15.92	0.126
40.01	15.77	0.126
40.05	15.60	0.126
40.08	15.46	0.125
40.10	15.33	0.125
40.14	15.16	0.125
40.17	14.99	0.125
40.20	14.86	0.125
40.22	14.73	0.125
40.25	14.58	0.125
40.29	14.41	0.125
40.31	14.28	0.125
40.34	14.12	0.125
40.37	13.98	0.125
40.41	13.82	0.125
40.43	13.68	0.125
40.47	13.51	0.125
40.50	13.35	0.125
40.52	13.23	0.125
40.56	13.03	0.125
40.62	12.73	0.125
40.59	12.88	0.125
40.64	12.63	0.125
40.68	12.43	0.125
40.71	12.30	0.125
40.74	12.15	0.125
40.76	12.02	0.125
40.80	11.85	0.125
40.83	11.70	0.125
40.86	11.57	0.125
40.89	11.41	0.125
40.92	11.25	0.125
40.94	11.12	0.125
40.98	10.96	0.125
41.00	10.83	0.125
41.04	10.67	0.125
41.07	10.51	0.125
41.10	10.35	0.125
41.13	10.20	0.125
41.16	10.05	0.125
41.19	9.92	0.125
41.22	9.76	0.125
41.24	9.63	0.125
41.28	9.46	0.125
41.31	9.32	0.125
41.34	9.14	0.125
41.36	9.04	0.125
41.39	8.87	0.125
41.43	8.70	0.125
41.45	8.59	0.125
41.49	8.42	0.125
41.51	8.30	0.125
41.54	8.12	0.125
41.58	7.97	0.125
41.60	7.83	0.125
41.63	7.68	0.125
41.67	7.51	0.125
41.70	7.36	0.125
41.73	7.22	0.125
41.75	7.08	0.125
41.79	6.93	0.125
41.81	6.78	0.125
41.85	6.62	0.125
41.88	6.47	0.125
41.91	6.30	0.125
41.94	6.17	0.125
41.96	6.02	0.125
42.00	5.85	0.125
42.03	5.72	0.125
42.06	5.57	0.125
42.09	5.43	0.125
42.11	5.28	0.125
42.14	5.13	0.125
42.19	4.93	0.125
42.21	4.81	0.125
42.24	4.67	0.125
42.26	4.53	0.125
42.29	4.39	0.125
42.32	4.24	0.125
42.36	4.07	0.125
42.39	3.93	0.125
42.42	3.77	0.125
42.44	3.63	0.125
42.48	3.48	0.125
42.51	3.31	0.125
42.54	3.16	0.125
42.57	3.02	0.125
42.60	2.87	0.125
42.63	2.72	0.125
42.65	2.59	0.125
42.69	2.43	0.125
42.71	2.28	0.125
42.75	2.12	0.125
42.78	1.96	0.125
42.80	1.84	0.125
42.84	1.67	0.125
42.87	1.51	0.125
42.89	1.39	0.125
42.93	1.23	0.125
42.96	1.07	0.125
42.98	0.95	0.125
43.02	0.76	0.125
43.05	0.60	0.125
43.08	0.48	0.125
43.11	0.33	0.125
43.14	0.18	0.125
43.16	0.04	0.125
43.19	-0.12	0.125
43.23	-0.27	0.125
43.25	-0.41	0.125
43.29	-0.59	0.125
43.31	-0.72	0.125
43.35	-0.89	0.125
43.37	-1.01	0.125
43.40	-1.16	0.125
43.43	-1.30	0.125
43.46	-1.47	0.125
43.50	-1.64	0.125
43.52	-1.76	0.125
43.55	-1.91	0.125
43.59	-2.08	0.125
43.61	-2.20	0.125
43.65	-2.38	0.125
43.68	-2.54	0.125
43.71	-2.68	0.125
43.74	-2.82	0.125
43.77	-2.98	0.125
43.79	-3.11	0.125
43.83	-3.27	0.125
43.85	-3.41	0.125
43.89	-3.57	0.125
43.92	-3.73	0.125
43.94	-3.86	0.125
43.98	-4.02	0.125
44.01	-4.17	0.125
44.04	-4.33	0.125
44.06	-4.46	0.125
44.09	-4.61	0.125
44.13	-4.76	0.125
44.16	-4.92	0.125
44.18	-5.05	0.125
44.22	-5.22	0.125
44.25	-5.37	0.125
44.28	-5.53	0.125
44.30	-5.64	0.125
44.34	-5.82	0.125
44.37	-5.98	0.125
44.39	-6.11	0.125
44.43	-6.27	0.125
44.46	-6.41	0.125
44.49	-6.56	0.125
44.51	-6.70	0.125
44.55	-6.87	0.125
44.57	-7.00	0.125
44.60	-7.15	0.125
44.64	-7.32	0.125
44.66	-7.46	0.125
44.70	-7.63	0.125
44.73	-7.78	0.125
44.76	-7.91	0.125
44.78	-8.05	0.125
44.82	-8.23	0.125
44.85	-8.38	0.125
44.88	-8.52	0.125
44.90	-8.63	0.125
44.94	-8.82	0.125
44.97	-8.97	0.125
44.99	-9.11	0.125
45.03	-9.27	0.125
45.06	-9.41	0.125
45.09	-9.57	0.125
45.11	-9.70	0.125
45.14	-9.86	0.125
45.17	-9.98	0.125
45.21	-10.17	0.125
45.24	-10.31	0.125
45.27	-10.46	0.125
45.29	-10.60	0.125
45.32	-10.74	0.125
45.36	-10.90	0.125
45.39	-11.06	0.125
45.41	-11.19	0.125
45.44	-11.35	0.125
45.48	-11.51	0.125
45.51	-11.69	0.125
45.53	-11.79	0.125
45.56	-11.94	0.125
45.59	-12.08	0.125
45.63	-12.26	0.125
45.66	-12.40	0.125
45.69	-12.55	0.125
45.73	-12.79	0.125
45.79	-13.09	0.125
45.76	-12.91	0.125
45.80	-13.14	0.125
45.83	-13.28	0.125
45.86	-13.45	0.125
45.90	-13.62	0.125
45.93	-13.76	0.125
45.97	-13.97	0.125
46.03	-14.26	0.125
45.98	-14.03	0.125
46.04	-14.33	0.125
46.08	-14.51	0.125
46.11	-14.65	0.125
46.14	-14.80	0.125
46.17	-14.98	0.125
46.20	-15.10	0.125
46.23	-15.25	0.125
46.26	-15.40	0.125
46.29	-15.55	0.125
46.32	-15.70	0.125
46.34	-15.81	0.125
46.37	-15.99	0.126
46.40	-16.14	0.126
46.44	-16.30	0.126
46.46	-16.44	0.126
46.49	-16.58	0.126
46.53	-16.74	0.126
46.55	-16.88	0.126
46.58	-17.03	0.126
46.61	-17.19	0.126
46.64	-17.33	0.126
46.68	-17.49	0.126
46.71	-17.65	0.126
46.74	-17.79	0.126
46.76	-17.92	0.126
46.80	-18.10	0.126
46.83	-18.26	0.126
46.86	-18.41	0.126
46.88	-18.53	0.126
46.92	-18.70	0.126
46.94	-18.82	0.126
46.98	-18.99	0.126
47.00	-19.11	0.126
47.04	-19.31	0.126
47.07	-19.45	0.126
47.09	-19.57	0.126
47.13	-19.75	0.126
47.15	-19.87	0.126
47.19	-20.04	0.126
47.22	-20.20	0.126
47.24	-20.34	0.126
47.28	-20.49	0.126
47.30	-20.63	0.126
47.33	-20.77	0.126
47.36	-20.91	0.126
47.40	-21.09	0.126
47.43	-21.24	0.126
47.46	-21.39	0.126
47.49	-21.55	0.126
47.51	-21.68	0.126
47.55	-21.85	0.126
47.58	-22.00	0.126
47.61	-22.14	0.126
47.64	-22.28	0.126
47.67	-22.46	0.126
47.70	-22.61	0.126
47.73	-22.73	0.126
47.76	-22.91	0.126
47.79	-23.04	0.126
47.81	-23.17	0.126
47.86	-23.38	0.126
47.88	-23.48	0.126
47.91	-23.64	0.126
47.94	-23.80	0.126
47.96	-23.92	0.126
48.00	-24.09	0.126
48.03	-24.25	0.126
48.05	-24.36	0.126
48.09	-24.54	0.126
48.12	-24.70	0.126
48.14	-24.83	0.126
48.18	-24.99	0.126
48.21	-25.14	0.126
48.24	-25.28	0.126
48.26	-25.43	0.126
48.30	-25.59	0.126
48.33	-25.75	0.126
48.35	-25.87	0.126
48.39	-26.03	0.126
48.41	-26.17	0.126
48.44	-26.33	0.126
48.48	-26.50	0.126
48.50	-26.60	0.126
48.53	-26.77	0.126
48.56	-26.93	0.126
48.60	-27.09	0.126
48.63	-27.23	0.126
48.66	-27.40	0.126
48.68	-27.51	0.126
48.72	-27.70	0.126
48.74	-27.83	0.126
48.78	-27.99	0.127
48.81	-28.13	0.127
48.84	-28.28	0.127
48.87	-28.44	0.127
48.89	-28.57	0.127
48.93	-28.74	0.127
48.97	-28.95	0.127
49.03	-29.25	0.127
48.99	-29.06	0.127
49.05	-29.36	0.127
49.08	-29.49	0.127
49.11	-29.63	0.127
49.14	-29.78	0.127
49.17	-29.95	0.127
49.19	-30.08	0.127
49.23	-30.24	0.127
49.25	-30.37	0.127
49.29	-30.54	0.127
49.32	-30.69	0.127
49.35	-30.84	0.127
49.38	-30.98	0.127
49.40	-31.12	0.127
49.44	-31.28	0.127
49.47	-31.44	0.127
49.49	-31.57	0.127
49.53	-31.73	0.127
49.56	-31.89	0.127
49.58	-32.02	0.127
49.62	-32.19	0.127
49.65	-32.34	0.127
49.66	-32.42	0.127
49.71	-32.64	0.127
49.74	-32.78	0.127
49.77	-32.94	0.127
49.79	-33.07	0.127
49.83	-33.23	0.127
49.86	-33.38	0.127
49.89	-33.54	0.127
49.91	-33.67	0.127
49.95	-33.83	0.127
49.98	-33.98	0.127
50.01	-34.13	0.127
50.04	-34.28	0.127
50.07	-34.43	0.127
50.09	-34.57	0.127
50.12	-34.72	0.127
50.16	-34.89	0.127
50.18	-35.00	0.127
50.21	-35.18	0.127
50.24	-35.33	0.127
50.27	-35.47	0.127
50.31	-35.63	0.127
50.33	-35.76	0.127
50.36	-35.93	0.127
50.40	-36.09	0.127
50.42	-36.22	0.127
50.46	-36.39	0.127
50.48	-36.52	0.127
50.52	-36.68	0.127
50.55	-36.83	0.127
50.58	-36.98	0.127
50.61	-37.13	0.127
50.63	-37.26	0.127
50.66	-37.40	0.127
50.69	-37.58	0.127
50.73	-37.73	0.127
50.76	-37.88	0.127
50.79	-38.03	0.127
50.81	-38.17	0.127
50.85	-38.35	0.127
50.88	-38.48	0.127
50.91	-38.63	0.127
50.93	-38.77	0.127
50.96	-38.93	0.127
51.00	-39.10	0.127
51.03	-39.23	0.128
51.05	-39.37	0.128
51.09	-39.53	0.128
51.11	-39.67	0.128
51.15	-39.83	0.128
51.18	-39.99	0.128
51.21	-40.13	0.128
51.24	-40.28	0.128
51.27	-40.43	0.127
51.29	-40.56	0.127
51.33	-40.74	0.127
51.35	-40.87	0.127
51.39	-41.03	0.127
51.42	-41.18	0.127
51.45	-41.34	0.127
51.48	-41.48	0.127
51.50	-41.59	0.127
51.53	-41.77	0.127
51.57	-41.94	0.128
51.59	-42.07	0.128
51.62	-42.22	0.128
51.65	-42.37	0.128
51.69	-42.53	0.128
51.71	-42.66	0.128
51.75	-42.84	0.128
51.77	-42.97	0.128
51.80	-43.12	0.128
51.83	-43.27	0.128
51.87	-43.43	0.128
51.90	-43.58	0.128
51.93	-43.73	0.128
51.96	-43.88	0.128
51.98	-44.02	0.128
52.01	-44.16	0.128
52.04	-44.32	0.128
52.08	-44.48	0.128
52.10	-44.61	0.128
52.13	-44.76	0.128
52.17	-44.94	0.128
52.19	-45.03	0.128
52.23	-45.23	0.128
52.26	-45.38	0.128
52.29	-45.52	0.128
52.31	-45.67	0.128
52.34	-45.82	0.128
52.38	-45.97	0.128
52.41	-46.13	0.128
52.43	-46.26	0.128
52.47	-46.44	0.128
52.50	-46.59	0.128
52.53	-46.73	0.128
52.55	-46.87	0.128
52.59	-47.02	0.128
52.62	-47.18	0.128
52.65	-47.33	0.128
52.68	-47.51	0.128
52.70	-47.61	0.128
52.73	-47.76	0.128
52.77	-47.95	0.127
52.79	-48.07	0.127
52.83	-48.22	0.127
52.86	-48.39	0.127
52.89	-48.53	0.127
52.91	-48.67	0.127
52.95	-48.83	0.127
52.98	-48.98	0.127
53.00	-49.10	0.127
53.04	-49.29	0.127
53.07	-49.44	0.127
53.09	-49.57	0.127
53.12	-49.71	0.127
53.16	-49.90	0.127
53.19	-50.05	0.127
53.22	-50.19	0.127
53.25	-50.33	0.127
53.28	-50.49	0.127
53.31	-50.63	0.127
53.34	-50.79	0.127
53.36	-50.91	0.127
53.40	-51.09	0.127
53.43	-51.23	0.127
53.46	-51.37	0.127
53.48	-51.50	0.127
53.51	-51.65	0.127
53.54	-51.81	0.127
53.58	-51.97	0.126
53.60	-52.11	0.126
53.63	-52.26	0.126
53.66	-52.41	0.126
53.70	-52.58	0.126
53.73	-52.73	0.126
53.75	-52.86	0.126
53.79	-53.02	0.126
53.82	-53.19	0.126
53.85	-53.36	0.126
53.88	-53.47	0.126
53.90	-53.61	0.126
53.94	-53.78	0.126
53.96	-53.91	0.125
54.00	-54.09	0.125
54.03	-54.24	0.125
54.06	-54.39	0.114
54.09	-54.54	0.119
54.12	-54.68	0.120
54.14	-54.82	0.120
54.17	-54.93	0.120
54.20	-55.12	0.121
54.23	-55.27	0.121
54.27	-55.44	0.121
54.30	-55.59	0.121
54.32	-55.71	0.121
54.36	-55.88	0.121
54.38	-56.02	0.121
54.42	-56.19	0.121
54.45	-56.34	0.121
54.48	-56.47	0.121
54.51	-56.65	0.121
54.54	-56.78	0.121
54.57	-56.94	0.121
54.60	-57.09	0.121
54.62	-57.22	0.121
54.66	-57.37	0.121
54.69	-57.56	0.121
54.72	-57.69	0.120
54.74	-57.82	0.120
54.77	-57.97	0.120
54.81	-58.13	0.120
54.84	-58.28	0.120
54.86	-58.42	0.119
54.89	-58.56	0.119
54.93	-58.73	0.119
54.96	-58.89	0.118
54.99	-59.04	0.118
55.01	-59.17	0.118
55.04	-59.33	0.118
55.08	-59.49	0.117
55.11	-59.63	0.117
55.14	-59.78	0.116
55.16	-59.93	0.116
55.19	-60.07	0.116
55.23	-60.24	0.115
55.25	-60.37	0.114
55.29	-60.53	0.114
55.31	-60.68	0.114
55.34	-60.83	0.113
55.38	-60.99	0.112
55.43	-61.25	0.112
55.40	-61.09	0.112
55.46	-61.39	0.111
55.49	-61.57	0.110
55.53	-61.73	0.109
55.56	-61.89	0.109
55.59	-62.04	0.108
55.61	-62.17	0.108
55.65	-62.35	0.107
55.68	-62.50	0.106
55.71	-62.64	0.106
55.74	-62.79	0.106
55.76	-62.94	0.105
55.80	-63.11	0.104
55.83	-63.24	0.104
55.85	-63.38	0.103
55.89	-63.56	0.102
55.91	-63.69	0.101
55.94	-63.83	0.101
55.98	-64.00	0.100
56.00	-64.13	0.099
56.04	-64.30	0.098
56.07	-64.45	0.098
56.10	-64.61	0.096
56.12	-64.74	0.096
56.16	-64.90	0.095
56.19	-65.05	0.095
56.22	-65.21	0.094
56.24	-65.35	0.094
56.27	-65.49	0.093
56.30	-65.64	0.092
56.34	-65.83	0.091
56.36	-65.95	0.091
56.39	-66.09	0.090
56.43	-66.27	0.089
56.46	-66.41	0.089
56.49	-66.57	0.088
56.51	-66.71	0.087
56.55	-66.87	0.087
56.58	-67.02	0.086
56.61	-67.18	0.085
56.64	-67.33	0.085
56.66	-67.46	0.084
56.69	-67.59	0.083
56.73	-67.78	0.083
56.76	-67.91	0.082
56.79	-68.06	0.082
56.81	-68.21	0.081
56.85	-68.38	0.080
56.87	-68.50	0.080
56.91	-68.68	0.079
56.94	-68.82	0.078
56.97	-68.98	0.078
56.99	-69.10	0.078
57.03	-69.28	0.077
57.06	-69.42	0.077
57.09	-69.57	0.076
57.11	-69.71	0.076
57.14	-69.86	0.075
57.18	-70.03	0.075
57.20	-70.16	0.074
57.24	-70.34	0.073
57.26	-70.47	0.073
57.30	-70.64	0.073
57.33	-70.77	0.072
57.36	-70.92	0.072
57.39	-71.07	0.071
57.41	-71.22	0.071
57.44	-71.37	0.071
57.48	-71.53	0.070
57.50	-71.66	0.070
57.53	-71.82	0.069
57.57	-72.00	0.069
57.60	-72.13	0.069
57.63	-72.28	0.068
57.66	-72.44	0.068
57.68	-72.57	0.068
57.71	-72.71	0.067
57.75	-72.89	0.067
57.77	-73.02	0.066
57.80	-73.17	0.066
57.84	-73.33	0.065
57.86	-73.48	0.065
57.90	-73.64	0.065
57.93	-73.78	0.065
57.95	-73.92	0.064
57.99	-74.09	0.064
58.01	-74.21	0.064
58.05	-74.40	0.063
58.07	-74.51	0.063
58.10	-74.67	0.063
58.14	-74.83	0.062
58.17	-75.00	0.062
58.20	-75.14	0.062
58.23	-75.28	0.062
58.25	-75.42	0.061
58.29	-75.58	0.061
58.32	-75.75	0.061
58.35	-75.92	0.061
58.38	-76.04	0.060
58.41	-76.19	0.060
58.44	-76.35	0.060
58.47	-76.50	0.060
58.50	-76.65	0.059
58.53	-76.78	0.059
58.56	-76.94	0.059
58.58	-77.08	0.059
58.61	-77.24	0.059
58.65	-77.39	0.058
58.68	-77.56	0.058
58.71	-77.69	0.058
58.73	-77.83	0.058
58.76	-77.98	0.058
58.80	-78.14	0.057
58.82	-78.28	0.057
58.85	-78.42	0.057
58.89	-78.58	0.057
58.91	-78.73	0.057
58.95	-78.89	0.056
58.98	-79.04	0.056
59.01	-79.21	0.056
59.03	-79.30	0.056
59.06	-79.48	0.056
59.10	-79.64	0.055
59.13	-79.79	0.055
59.16	-79.93	0.055
59.19	-80.10	0.055
59.21	-80.21	0.055
59.24	-80.38	0.054
59.28	-80.56	0.054
59.31	-80.69	0.054
59.34	-80.83	0.054
59.36	-80.96	0.054
59.40	-81.14	0.054
59.42	-81.27	0.053
59.45	-81.42	0.053
59.48	-81.57	0.053
59.52	-81.76	0.053
59.54	-81.87	0.053
59.57	-82.01	0.053
59.61	-82.19	0.053
59.64	-82.32	0.053
59.66	-82.46	0.052
59.70	-82.64	0.052
59.73	-82.79	0.052
59.75	-82.91	0.052
59.80	-83.13	0.052
59.86	-83.43	0.052
59.83	-83.27	0.052
59.89	-83.57	0.051
59.90	-83.64	0.051
59.94	-83.82	0.051
59.96	-83.97	0.051
59.99	-84.12	0.051
60.01	-84.22	0.051
60.06	-84.43	0.051
60.08	-84.55	0.051
60.11	-84.71	0.051
60.14	-84.86	0.050
60.18	-85.03	0.050
60.20	-85.16	0.050
60.24	-85.31	0.050
60.26	-85.46	0.050
60.29	-85.62	0.050
60.32	-85.76	0.050
60.36	-85.94	0.050
60.39	-86.08	0.050
60.41	-86.19	0.049
60.44	-86.35	0.049
60.48	-86.51	0.049
60.51	-86.66	0.049
60.54	-86.81	0.049
60.57	-86.98	0.049
60.60	-87.12	0.049
60.63	-87.27	0.049
60.66	-87.42	0.049
60.69	-87.59	0.049
60.71	-87.71	0.048
60.75	-87.86	0.048
60.77	-88.00	0.048
60.81	-88.16	0.048
60.83	-88.29	0.048
60.87	-88.46	0.048
60.91	-88.68	0.048
60.97	-88.98	0.048
60.94	-88.82	0.048
60.99	-89.06	0.048
61.02	-89.21	0.048
61.04	-89.35	0.048
61.08	-89.51	0.048
61.11	-89.65	0.047
61.14	-89.81	0.047
61.17	-89.96	0.047
61.20	-90.11	0.047
61.23	-90.26	0.047
61.25	-90.39	0.047
61.29	-90.55	0.047
61.31	-90.69	0.047
61.35	-90.89	0.047
61.38	-91.01	0.047
61.40	-91.14	0.047
61.44	-91.30	0.046
61.46	-91.44	0.046
61.49	-91.58	0.046
61.53	-91.77	0.046
61.56	-91.91	0.046
61.59	-92.05	0.046
61.61	-92.19	0.046
61.65	-92.36	0.046
61.68	-92.49	0.046
61.70	-92.61	0.046
61.74	-92.80	0.046
61.76	-92.92	0.046
61.80	-93.09	0.046
61.83	-93.24	0.045
61.86	-93.44	0.045
61.88	-93.53	0.045
61.92	-93.69	0.045
61.94	-93.82	0.045
61.98	-93.99	0.045
62.01	-94.15	0.045
62.03	-94.27	0.045
62.06	-94.43	0.045
62.10	-94.59	0.045
62.13	-94.75	0.045
62.16	-94.90	0.045
62.18	-95.00	0.045
62.22	-95.20	0.045
62.24	-95.33	0.045
62.28	-95.48	0.044
62.31	-95.63	0.044
62.33	-95.76	0.044
62.36	-95.92	0.044
62.40	-96.08	0.044
62.42	-96.22	0.044
62.46	-96.38	0.044
62.49	-96.52	0.044
62.51	-96.66	0.044
62.54	-96.82	0.044
62.57	-96.96	0.044
62.61	-97.13	0.044
62.63	-97.26	0.044
62.67	-97.44	0.044
62.69	-97.54	0.044
62.73	-97.73	0.043
62.76	-97.87	0.043
62.79	-98.03	0.043
62.82	-98.18	0.043
62.85	-98.36	0.043
62.88	-98.47	0.043
62.91	-98.62	0.043
62.93	-98.76	0.043
62.96	-98.90	0.043
63.00	-99.09	0.043
63.00	-99.10	0.043

[step]
Ramp 5.00 °C/min to 120.00 °C
Time	Temperature	Heat Flow (Normalized)
min	°C	W/g
63.01	-99.11	0.043
63.03	-99.22	0.043
63.06	-99.36	0.041
63.09	-99.44	0.045
63.12	-99.45	0.067
63.15	-99.41	0.067
63.19	-99.33	0.046
63.21	-99.28	0.033
63.24	-99.19	0.016
63.27	-99.09	0.001
63.30	-98.99	-0.014
63.33	-98.89	-0.026
63.36	-98.77	-0.036
63.39	-98.64	-0.047
63.42	-98.50	-0.055
63.45	-98.37	-0.062
63.48	-98.23	-0.068
63.52	-98.06	-0.073
63.54	-97.95	-0.076
63.59	-97.74	-0.081
63.65	-97.45	-0.085
63.61	-97.61	-0.083
63.66	-97.36	-0.086
63.69	-97.23	-0.088
63.72	-97.08	-0.089
63.75	-96.95	-0.090
63.78	-96.78	-0.091
63.81	-96.62	-0.091
63.85	-96.45	-0.092
63.88	-96.33	-0.093
63.90	-96.19	-0.093
63.93	-96.06	-0.093
63.97	-95.87	-0.093
63.99	-95.73	-0.094
64.03	-95.58	-0.094
64.05	-95.44	-0.094
64.08	-95.30	-0.094
64.11	-95.13	-0.095
64.15	-94.98	-0.095
64.17	-94.88	-0.095
64.20	-94.69	-0.095
64.24	-94.54	-0.096
64.26	-94.39	-0.096
64.29	-94.24	-0.096
64.32	-94.12	-0.096
64.35	-93.97	-0.096
64.38	-93.82	-0.096
64.41	-93.64	-0.097
64.45	-93.48	-0.097
64.47	-93.36	-0.097
64.50	-93.20	-0.097
64.54	-93.04	-0.097
64.56	-92.89	-0.097
64.59	-92.75	-0.097
64.63	-92.57	-0.097
64.65	-92.46	-0.097
64.68	-92.33	-0.098
64.72	-92.13	-0.098
64.74	-91.99	-0.098
64.78	-91.83	-0.098
64.81	-91.68	-0.098
64.84	-91.53	-0.098
64.86	-91.39	-0.098
64.89	-91.25	-0.098
64.93	-91.09	-0.098
64.95	-90.95	-0.098
64.99	-90.79	-0.098
65.02	-90.64	-0.098
65.04	-90.52	-0.099
65.07	-90.35	-0.099
65.11	-90.19	-0.099
65.14	-90.03	-0.099
65.17	-89.87	-0.099
65.19	-89.75	-0.099
65.22	-89.63	-0.099
65.24	-89.49	-0.099
65.28	-89.30	-0.099
65.31	-89.14	-0.099
65.35	-88.98	-0.099
65.37	-88.89	-0.099
65.41	-88.69	-0.099
65.43	-88.55	-0.099
65.46	-88.40	-0.099
65.49	-88.25	-0.099
65.52	-88.11	-0.100
65.56	-87.95	-0.100
65.59	-87.80	-0.100
65.61	-87.69	-0.100
65.64	-87.51	-0.100
65.68	-87.34	-0.100
65.71	-87.20	-0.100
65.73	-87.06	-0.100
65.77	-86.89	-0.100
65.79	-86.77	-0.100
65.83	-86.60	-0.100
65.85	-86.46	-0.100
65.89	-86.30	-0.100
65.91	-86.16	-0.100
65.94	-86.01	-0.100
65.97	-85.86	-0.100
66.00	-85.71	-0.101
66.03	-85.57	-0.101
66.06	-85.40	-0.101
66.09	-85.25	-0.101
66.12	-85.11	-0.101
66.15	-84.97	-0.101
66.18	-84.83	-0.101
66.21	-84.66	-0.101
66.24	-84.52	-0.101
66.27	-84.36	-0.101
66.30	-84.23	-0.101
66.33	-84.06	-0.101
66.36	-83.92	-0.101
66.39	-83.75	-0.101
66.42	-83.61	-0.101
66.45	-83.47	-0.102
66.48	-83.33	-0.102
66.52	-83.13	-0.102
66.52	-83.12	-0.102
66.57	-82.87	-0.102
66.60	-82.73	-0.102
66.63	-82.56	-0.102
66.66	-82.40	-0.102
66.70	-82.22	-0.102
66.72	-82.12	-0.102
66.75	-81.96	-0.102
66.78	-81.82	-0.102
66.81	-81.65	-0.102
66.84	-81.51	-0.103
66.88	-81.34	-0.103
66.91	-81.20	-0.103
66.93	-81.07	-0.103
66.96	-80.90	-0.103
66.99	-80.75	-0.103
67.03	-80.59	-0.103
67.05	-80.48	-0.103
67.09	-80.29	-0.103
67.11	-80.19	-0.103
67.14	-80.01	-0.103
67.17	-79.90	-0.103
67.19	-79.80	-0.103
67.23	-79.59	-0.104
67.26	-79.40	-0.104
67.29	-79.30	-0.104
67.32	-79.12	-0.104
67.34	-79.01	-0.104
67.38	-78.82	-0.104
67.41	-78.68	-0.104
67.44	-78.50	-0.104
67.47	-78.37	-0.104
67.51	-78.20	-0.104
67.54	-78.05	-0.104
67.57	-77.90	-0.105
67.59	-77.76	-0.105
67.62	-77.61	-0.105
67.65	-77.48	-0.105
67.68	-77.35	-0.105
67.72	-77.15	-0.105
67.74	-77.06	-0.105
67.77	-76.87	-0.105
67.81	-76.70	-0.105
67.83	-76.60	-0.105
67.86	-76.45	-0.106
67.89	-76.26	-0.106
67.93	-76.11	-0.106
67.95	-75.97	-0.106
67.98	-75.84	-0.106
68.01	-75.68	-0.106
68.04	-75.51	-0.106
68.07	-75.36	-0.106
68.10	-75.23	-0.106
68.14	-75.06	-0.107
68.17	-74.90	-0.107
68.19	-74.78	-0.107
68.22	-74.63	-0.107
68.26	-74.45	-0.107
68.28	-74.32	-0.107
68.32	-74.14	-0.107
68.34	-74.03	-0.107
68.38	-73.85	-0.108
68.40	-73.73	-0.108
68.44	-73.55	-0.108
68.46	-73.41	-0.108
68.49	-73.27	-0.108
68.51	-73.16	-0.108
68.55	-72.98	-0.109
68.58	-72.84	-0.109
68.61	-72.66	-0.109
68.65	-72.51	-0.109
68.67	-72.39	-0.109
68.69	-72.29	-0.109
68.74	-72.06	-0.110
68.77	-71.91	-0.110
68.80	-71.76	-0.110
68.81	-71.66	-0.110
68.86	-71.46	-0.111
68.88	-71.33	-0.111
68.91	-71.16	-0.111
68.95	-71.01	-0.111
68.96	-70.95	-0.111
69.00	-70.73	-0.112
69.04	-70.55	-0.112
69.06	-70.45	-0.112
69.10	-70.25	-0.112
69.11	-70.17	-0.112
69.14	-70.02	-0.113
69.18	-69.83	-0.113
69.21	-69.68	-0.113
69.24	-69.54	-0.114
69.27	-69.39	-0.114
69.31	-69.21	-0.114
69.33	-69.10	-0.114
69.37	-68.91	-0.115
69.40	-68.76	-0.115
69.42	-68.65	-0.116
69.45	-68.47	-0.116
69.50	-68.22	-0.116
69.56	-67.92	-0.117
69.51	-68.20	-0.116
69.57	-67.90	-0.117
69.60	-67.72	-0.118
69.64	-67.58	-0.118
69.66	-67.43	-0.118
69.69	-67.33	-0.119
69.72	-67.14	-0.119
69.76	-66.97	-0.120
69.78	-66.84	-0.120
69.81	-66.69	-0.121
69.84	-66.55	-0.121
69.88	-66.36	-0.122
69.90	-66.24	-0.123
69.93	-66.12	-0.123
69.96	-65.93	-0.123
69.99	-65.81	-0.124
70.03	-65.60	-0.125
70.05	-65.50	-0.125
70.08	-65.35	-0.126
70.11	-65.19	-0.127
70.13	-65.10	-0.127
70.18	-64.88	-0.128
70.20	-64.75	-0.129
70.23	-64.60	-0.130
70.27	-64.42	-0.131
70.29	-64.30	-0.131
70.33	-64.13	-0.132
70.35	-63.99	-0.133
70.39	-63.84	-0.134
70.41	-63.70	-0.135
70.45	-63.53	-0.136
70.46	-63.45	-0.136
70.50	-63.27	-0.138
70.54	-63.09	-0.138
70.56	-62.95	-0.140
70.59	-62.85	-0.140
70.62	-62.67	-0.141
70.65	-62.51	-0.142
70.69	-62.36	-0.143
70.72	-62.20	-0.144
70.74	-62.08	-0.145
70.78	-61.91	-0.146
70.80	-61.76	-0.147
70.83	-61.62	-0.148
70.86	-61.47	-0.149
70.89	-61.32	-0.149
70.92	-61.17	-0.150
70.95	-61.02	-0.151
70.98	-60.87	-0.152
71.02	-60.71	-0.153
71.04	-60.59	-0.154
71.07	-60.43	-0.155
71.10	-60.30	-0.156
71.13	-60.13	-0.156
71.17	-59.96	-0.157
71.19	-59.84	-0.158
71.22	-59.69	-0.158
71.26	-59.52	-0.159
71.29	-59.38	-0.160
71.31	-59.26	-0.161
71.33	-59.14	-0.161
71.37	-58.97	-0.162
71.40	-58.80	-0.163
71.44	-58.63	-0.163
71.46	-58.51	-0.164
71.49	-58.34	-0.164
71.52	-58.20	-0.165
71.55	-58.03	-0.165
71.59	-57.88	-0.166
71.61	-57.73	-0.166
71.64	-57.61	-0.167
71.67	-57.44	-0.167
71.70	-57.30	-0.168
71.73	-57.15	-0.168
71.76	-57.00	-0.169
71.79	-56.88	-0.169
71.83	-56.69	-0.170
71.85	-56.55	-0.170
71.88	-56.40	-0.170
71.91	-56.25	-0.171
71.94	-56.10	-0.171
71.98	-55.93	-0.171
72.00	-55.81	-0.172
72.03	-55.67	-0.172
72.06	-55.50	-0.172
72.09	-55.35	-0.172
72.12	-55.21	-0.173
72.15	-55.06	-0.173
72.18	-54.90	-0.173
72.21	-54.75	-0.174
72.25	-54.57	-0.174
72.27	-54.46	-0.174
72.30	-54.30	-0.174
72.33	-54.16	-0.174
72.36	-54.00	-0.175
72.39	-53.85	-0.175
72.43	-53.69	-0.175
72.49	-53.39	-0.175
72.45	-53.59	-0.175
72.50	-53.29	-0.175
72.55	-53.09	-0.176
72.58	-52.94	-0.176
72.61	-52.77	-0.176
72.63	-52.66	-0.176
72.66	-52.50	-0.176
72.69	-52.39	-0.176
72.72	-52.21	-0.176
72.75	-52.04	-0.177
72.78	-51.91	-0.177
72.82	-51.73	-0.177
72.84	-51.62	-0.177
72.88	-51.43	-0.177
72.90	-51.31	-0.177
72.93	-51.16	-0.177
72.97	-50.98	-0.177
72.99	-50.89	-0.177
73.02	-50.72	-0.177
73.05	-50.55	-0.178
73.09	-50.39	-0.178
73.11	-50.28	-0.178
73.14	-50.12	-0.178
73.18	-49.93	-0.178
73.20	-49.83	-0.178
73.23	-49.66	-0.178
73.27	-49.48	-0.178
73.30	-49.33	-0.178
73.32	-49.19	-0.178
73.34	-49.12	-0.178
73.38	-48.93	-0.178
73.42	-48.72	-0.178
73.45	-48.59	-0.178
73.48	-48.42	-0.178
73.50	-48.31	-0.178
73.54	-48.12	-0.179
73.56	-48.00	-0.179
73.60	-47.84	-0.179
73.62	-47.69	-0.179
73.65	-47.55	-0.179
73.69	-47.37	-0.179
73.71	-47.25	-0.179
73.75	-47.08	-0.179
73.80	-46.83	-0.179
73.76	-47.03	-0.179
73.82	-46.73	-0.179
73.86	-46.52	-0.179
73.89	-46.38	-0.179
73.92	-46.20	-0.179
73.95	-46.05	-0.179
73.98	-45.92	-0.179
74.01	-45.74	-0.179
74.04	-45.62	-0.179
74.08	-45.44	-0.179
74.10	-45.31	-0.179
74.14	-45.13	-0.179
74.16	-45.02	-0.179
74.17	-44.94	-0.179
74.22	-44.70	-0.179
74.25	-44.55	-0.179
74.28	-44.42	-0.179
74.31	-44.24	-0.179
74.35	-44.08	-0.179
74.38	-43.92	-0.179
74.40	-43.78	-0.179
74.43	-43.64	-0.179
74.47	-43.47	-0.179
74.50	-43.33	-0.179
74.52	-43.21	-0.179
74.55	-43.04	-0.179
74.58	-42.90	-0.179
74.62	-42.72	-0.179
74.64	-42.59	-0.179
74.68	-42.41	-0.179
74.70	-42.31	-0.179
74.74	-42.13	-0.179
74.76	-41.99	-0.179
74.80	-41.83	-0.179
74.82	-41.70	-0.179
74.85	-41.53	-0.179
74.88	-41.41	-0.179
74.91	-41.25	-0.179
74.93	-41.16	-0.179
74.98	-40.93	-0.179
75.01	-40.77	-0.179
75.03	-40.65	-0.179
75.06	-40.51	-0.179
75.09	-40.34	-0.179
75.13	-40.16	-0.179
75.15	-40.05	-0.179
75.17	-39.95	-0.179
75.21	-39.76	-0.179
75.24	-39.59	-0.179
75.27	-39.45	-0.179
75.30	-39.29	-0.179
75.33	-39.14	-0.179
75.36	-39.02	-0.179
75.39	-38.86	-0.179
75.42	-38.69	-0.179
75.45	-38.55	-0.179
75.49	-38.36	-0.179
75.52	-38.21	-0.179
75.54	-38.09	-0.179
75.56	-37.98	-0.179
75.60	-37.78	-0.179
75.64	-37.62	-0.179
75.66	-37.48	-0.179
75.70	-37.30	-0.179
75.73	-37.18	-0.179
75.75	-37.03	-0.179
75.79	-36.87	-0.179
75.81	-36.75	-0.179
75.85	-36.58	-0.178
75.86	-36.47	-0.178
75.90	-36.32	-0.178
75.94	-36.12	-0.178
75.96	-36.02	-0.178
76.00	-35.82	-0.178
76.02	-35.69	-0.178
76.06	-35.52	-0.178
76.09	-35.37	-0.178
76.11	-35.26	-0.178
76.14	-35.09	-0.178
76.18	-34.92	-0.178
76.20	-34.82	-0.178
76.23	-34.63	-0.178
76.27	-34.46	-0.178
76.30	-34.32	-0.178
76.32	-34.20	-0.178
76.35	-34.02	-0.178
76.38	-33.88	-0.178
76.41	-33.73	-0.178
76.44	-33.60	-0.178
76.47	-33.45	-0.178
76.50	-33.29	-0.178
76.53	-33.15	-0.178
76.55	-33.04	-0.178
76.59	-32.83	-0.178
76.63	-32.67	-0.178
76.65	-32.52	-0.178
76.69	-32.33	-0.178
76.71	-32.23	-0.178
76.75	-32.06	-0.178
76.77	-31.94	-0.178
76.80	-31.77	-0.178
76.84	-31.62	-0.178
76.87	-31.46	-0.178
76.89	-31.33	-0.178
76.92	-31.19	-0.178
76.96	-31.01	-0.178
76.99	-30.87	-0.178
77.01	-30.73	-0.178
77.05	-30.56	-0.178
77.08	-30.40	-0.178
77.10	-30.29	-0.178
77.13	-30.15	-0.178
77.17	-29.96	-0.178
77.20	-29.80	-0.178
77.23	-29.67	-0.178
77.25	-29.53	-0.178
77.28	-29.40	-0.178
77.31	-29.22	-0.178
77.34	-29.09	-0.178
77.38	-28.91	-0.178
77.40	-28.80	-0.178
77.44	-28.62	-0.178
77.46	-28.50	-0.178
77.49	-28.34	-0.177
77.53	-28.15	-0.177
77.55	-28.02	-0.177
77.58	-27.88	-0.177
77.61	-27.72	-0.177
77.65	-27.57	-0.177
77.67	-27.44	-0.177
77.70	-27.28	-0.177
77.74	-27.12	-0.177
77.76	-26.97	-0.177
77.79	-26.85	-0.177
77.81	-26.73	-0.177
77.85	-26.53	-0.177
77.89	-26.37	-0.177
77.91	-26.22	-0.177
77.94	-26.08	-0.177
77.97	-25.92	-0.177
78.00	-25.77	-0.177
78.04	-25.62	-0.177
78.07	-25.46	-0.177
78.09	-25.32	-0.177
78.13	-25.17	-0.177
78.15	-25.02	-0.177
78.19	-24.85	-0.177
78.21	-24.73	-0.177
78.25	-24.56	-0.177
78.27	-24.42	-0.177
78.30	-24.27	-0.177
78.34	-24.11	-0.177
78.36	-24.01	-0.177
78.39	-23.83	-0.177
78.42	-23.67	-0.177
78.45	-23.54	-0.177
78.48	-23.40	-0.177
78.51	-23.21	-0.177
78.55	-23.06	-0.177
78.57	-22.95	-0.177
78.59	-22.83	-0.177
78.63	-22.65	-0.177
78.66	-22.46	-0.177
78.70	-22.29	-0.177
78.73	-22.16	-0.177
78.75	-22.01	-0.177
78.78	-21.88	-0.177
78.81	-21.72	-0.177
78.85	-21.53	-0.177
78.88	-21.41	-0.177
78.90	-21.29	-0.177
78.93	-21.12	-0.177
78.95	-21.03	-0.177
78.99	-20.82	-0.177
79.03	-20.65	-0.177
79.05	-20.52	-0.177
79.08	-20.40	-0.177
79.11	-20.22	-0.177
79.14	-20.07	-0.177
79.18	-19.89	-0.177
79.20	-19.77	-0.177
79.24	-19.60	-0.177
79.26	-19.49	-0.177
79.29	-19.34	-0.177
79.31	-19.23	-0.177
79.36	-18.96	-0.177
79.37	-18.92	-0.177
79.41	-18.75	-0.177
79.44	-18.61	-0.177
79.47	-18.42	-0.176
79.50	-18.26	-0.176
79.54	-18.11	-0.177
79.56	-17.99	-0.176
79.58	-17.87	-0.176
79.62	-17.69	-0.176
79.66	-17.50	-0.176
79.68	-17.38	-0.176
79.71	-17.21	-0.176
79.74	-17.07	-0.176
79.78	-16.89	-0.176
79.80	-16.78	-0.176
79.83	-16.63	-0.176
79.86	-16.49	-0.176
79.89	-16.36	-0.176
79.93	-16.14	-0.176
79.95	-16.01	-0.176
79.99	-15.84	-0.176
80.01	-15.73	-0.176
80.05	-15.55	-0.176
80.07	-15.44	-0.176
80.10	-15.26	-0.176
80.14	-15.11	-0.176
80.16	-14.96	-0.176
80.19	-14.83	-0.176
80.22	-14.67	-0.176
80.25	-14.54	-0.176
80.28	-14.37	-0.176
80.32	-14.19	-0.176
80.35	-14.06	-0.176
80.38	-13.91	-0.176
80.41	-13.74	-0.176
80.43	-13.61	-0.176
80.46	-13.47	-0.176
80.50	-13.31	-0.176
80.53	-13.13	-0.176
80.55	-13.00	-0.176
80.59	-12.86	-0.176
80.62	-12.70	-0.176
80.65	-12.55	-0.176
80.68	-12.41	-0.176
80.70	-12.26	-0.176
80.74	-12.11	-0.176
80.76	-11.97	-0.176
80.80	-11.80	-0.176
80.83	-11.65	-0.176
80.86	-11.46	-0.176
80.87	-11.41	-0.176
80.91	-11.21	-0.176
80.94	-11.06	-0.176
80.97	-10.92	-0.176
81.01	-10.74	-0.176
81.04	-10.58	-0.176
81.07	-10.44	-0.176
81.09	-10.31	-0.176
81.12	-10.16	-0.176
81.16	-10.00	-0.176
81.19	-9.84	-0.176
81.21	-9.72	-0.176
81.24	-9.59	-0.176
81.27	-9.43	-0.176
81.30	-9.29	-0.176
81.33	-9.13	-0.176
81.36	-8.95	-0.176
81.39	-8.81	-0.176
81.42	-8.67	-0.176
81.45	-8.53	-0.176
81.48	-8.37	-0.176
81.50	-8.28	-0.176
81.53	-8.13	-0.176
81.57	-7.92	-0.176
81.60	-7.75	-0.176
81.64	-7.59	-0.176
81.67	-7.44	-0.176
81.70	-7.28	-0.176
81.72	-7.16	-0.176
81.75	-7.02	-0.176
81.79	-6.85	-0.176
81.81	-6.71	-0.176
81.84	-6.56	-0.176
81.88	-6.39	-0.176
81.91	-6.24	-0.176
81.93	-6.11	-0.176
81.97	-5.94	-0.176
81.99	-5.84	-0.176
82.02	-5.68	-0.176
82.05	-5.50	-0.176
82.09	-5.34	-0.176
82.11	-5.20	-0.176
82.14	-5.06	-0.176
82.18	-4.88	-0.176
82.20	-4.78	-0.176
82.23	-4.64	-0.176
82.26	-4.46	-0.176
82.30	-4.28	-0.175
82.32	-4.17	-0.175
82.35	-4.01	-0.175
82.39	-3.85	-0.175
82.41	-3.70	-0.175
82.45	-3.54	-0.175
82.47	-3.41	-0.175
82.50	-3.25	-0.175
82.53	-3.12	-0.175
82.56	-2.96	-0.175
82.59	-2.81	-0.175
82.62	-2.68	-0.175
82.66	-2.49	-0.175
82.68	-2.36	-0.175
82.72	-2.19	-0.175
82.74	-2.06	-0.175
82.77	-1.92	-0.175
82.80	-1.75	-0.175
82.83	-1.61	-0.175
82.86	-1.45	-0.175
82.90	-1.30	-0.175
82.92	-1.16	-0.175
82.95	-1.01	-0.175
82.98	-0.87	-0.175
83.01	-0.72	-0.175
83.05	-0.50	-0.175
83.07	-0.44	-0.175
83.10	-0.30	-0.175
83.16	0.05	-0.175
83.12	-0.17	-0.175
83.18	0.13	-0.175
83.21	0.29	-0.175
83.25	0.47	-0.175
83.29	0.66	-0.175
83.31	0.77	-0.175
83.33	0.89	-0.175
83.37	1.09	-0.175
83.40	1.24	-0.175
83.44	1.41	-0.175
83.46	1.52	-0.175
83.49	1.68	-0.175
83.52	1.83	-0.175
83.55	1.97	-0.175
83.59	2.16	-0.175
83.61	2.31	-0.175
83.65	2.45	-0.175
83.67	2.58	-0.175
83.71	2.77	-0.175
83.73	2.88	-0.175
83.76	3.04	-0.175
83.79	3.18	-0.175
83.82	3.35	-0.175
83.85	3.46	-0.175
83.88	3.63	-0.175
83.91	3.81	-0.175
83.93	3.89	-0.176
83.98	4.11	-0.176
84.00	4.26	-0.176
84.04	4.42	-0.176
84.06	4.56	-0.176
84.09	4.70	-0.176
84.13	4.86	-0.176
84.16	5.02	-0.176
84.18	5.15	-0.176
84.20	5.22	-0.176
84.24	5.43	-0.176
84.27	5.58	-0.176
84.30	5.72	-0.176
84.33	5.88	-0.176
84.35	5.98	-0.176
84.39	6.20	-0.176
84.42	6.34	-0.176
84.45	6.51	-0.176
84.48	6.62	-0.176
84.51	6.78	-0.176
84.54	6.95	-0.176
84.58	7.12	-0.176
84.60	7.24	-0.176
84.64	7.42	-0.176
84.67	7.57	-0.176
84.69	7.67	-0.176
84.72	7.82	-0.176
84.76	8.02	-0.176
84.78	8.14	-0.176
84.80	8.24	-0.176
84.84	8.41	-0.176
84.88	8.61	-0.176
84.90	8.72	-0.176
84.94	8.92	-0.176
84.95	9.01	-0.176
84.99	9.20	-0.176
85.03	9.36	-0.176
85.05	9.48	-0.176
85.08	9.64	-0.176
85.11	9.81	-0.176
85.14	9.93	-0.176
85.18	10.13	-0.176
85.20	10.24	-0.176
85.24	10.41	-0.176
85.26	10.56	-0.176
85.30	10.72	-0.176
85.31	10.81	-0.176
85.35	11.00	-0.176
85.39	11.17	-0.176
85.41	11.30	-0.176
85.44	11.45	-0.176
85.48	11.61	-0.176
85.51	11.79	-0.176
85.54	11.94	-0.176
85.57	12.07	-0.176
85.59	12.19	-0.176
85.63	12.37	-0.176
85.65	12.51	-0.176
85.67	12.60	-0.176
85.71	12.81	-0.176
85.75	12.96	-0.176
85.78	13.11	-0.176
85.80	13.21	-0.176
85.83	13.39	-0.176
85.85	13.51	-0.176
85.89	13.68	-0.176
85.93	13.86	-0.176
85.95	13.99	-0.176
85.98	14.14	-0.176
86.01	14.30	-0.176
86.04	14.43	-0.176
86.07	14.60	-0.176
86.10	14.76	-0.176
86.13	14.89	-0.176
86.16	15.05	-0.176
86.19	15.20	-0.176
86.22	15.33	-0.176
86.25	15.48	-0.176
86.29	15.66	-0.176
86.31	15.81	-0.176
86.35	15.96	-0.176
86.38	16.12	-0.176
86.40	16.25	-0.176
86.43	16.40	-0.176
86.46	16.56	-0.176
86.49	16.70	-0.176
86.53	16.86	-0.176
86.55	17.00	-0.176
86.58	17.15	-0.176
86.61	17.31	-0.176
86.64	17.45	-0.177
86.68	17.62	-0.177
86.71	17.78	-0.177
86.74	17.91	-0.177
86.76	18.02	-0.177
86.79	18.20	-0.177
86.82	18.32	-0.177
86.84	18.45	-0.177
86.88	18.64	-0.177
86.91	18.78	-0.177
86.95	18.96	-0.177
86.97	19.08	-0.177
87.00	19.24	-0.177
87.03	19.40	-0.177
87.07	19.57	-0.177
87.10	19.72	-0.177
87.12	19.86	-0.177
87.16	20.02	-0.177
87.18	20.13	-0.177
87.21	20.31	-0.177
87.25	20.46	-0.177
87.27	20.61	-0.177
87.31	20.78	-0.177
87.34	20.92	-0.177
87.37	21.07	-0.177
87.40	21.22	-0.177
87.42	21.35	-0.177
87.45	21.49	-0.177
87.49	21.67	-0.177
87.50	21.76	-0.177
87.55	21.96	-0.177
87.57	22.11	-0.177
87.60	22.25	-0.177
87.63	22.41	-0.177
87.68	22.62	-0.177
87.74	22.92	-0.177
87.68	22.65	-0.177
87.74	22.95	-0.177
87.78	23.16	-0.177
87.84	23.46	-0.177
87.81	23.29	-0.177
87.87	23.59	-0.177
87.90	23.77	-0.177
87.94	23.92	-0.177
87.96	24.05	-0.177
87.99	24.18	-0.177
88.03	24.39	-0.177
88.04	24.45	-0.177
88.08	24.63	-0.177
88.11	24.81	-0.177
88.15	24.97	-0.177
88.18	25.12	-0.177
88.20	25.25	-0.177
88.22	25.35	-0.177
88.27	25.58	-0.177
88.30	25.72	-0.177
88.33	25.87	-0.177
88.35	26.00	-0.177
88.37	26.08	-0.177
88.41	26.31	-0.177
88.45	26.48	-0.178
88.47	26.60	-0.178
88.50	26.74	-0.178
88.53	26.89	-0.178
88.57	27.08	-0.178
88.59	27.21	-0.178
88.63	27.37	-0.178
88.65	27.47	-0.178
88.69	27.69	-0.178
88.71	27.79	-0.178
88.75	27.97	-0.178
88.77	28.09	-0.178
88.80	28.26	-0.178
88.83	28.39	-0.178
88.87	28.60	-0.178
88.89	28.71	-0.178
88.92	28.84	-0.178
88.95	29.01	-0.178
88.98	29.16	-0.178
89.01	29.30	-0.178
89.05	29.50	-0.178
89.07	29.60	-0.178
89.10	29.77	-0.178
89.13	29.90	-0.178
89.16	30.07	-0.178
89.20	30.22	-0.178
89.23	30.37	-0.178
89.26	30.54	-0.178
89.29	30.67	-0.178
89.31	30.78	-0.178
89.34	30.93	-0.178
89.38	31.12	-0.178
89.40	31.22	-0.178
89.43	31.40	-0.178
89.46	31.54	-0.178
89.49	31.71	-0.178
89.51	31.82	-0.178
89.57	32.10	-0.178
89.63	32.40	-0.178
89.60	32.22	-0.178
89.64	32.42	-0.178
89.67	32.59	-0.178
89.70	32.76	-0.178
89.74	32.93	-0.178
89.76	33.05	-0.178
89.80	33.22	-0.178
89.81	33.32	-0.178
89.85	33.52	-0.178
89.89	33.67	-0.178
89.91	33.82	-0.178
89.95	33.97	-0.178
89.96	34.07	-0.178
90.00	34.24	-0.178
90.04	34.43	-0.178
90.07	34.58	-0.178
90.09	34.69	-0.178
90.13	34.87	-0.178
90.15	35.01	-0.178
90.19	35.18	-0.178
90.21	35.31	-0.178
90.24	35.46	-0.178
90.28	35.63	-0.178
90.31	35.78	-0.178
90.33	35.92	-0.178
90.36	36.03	-0.178
90.39	36.20	-0.178
90.43	36.37	-0.178
90.45	36.51	-0.178
90.48	36.67	-0.178
90.51	36.82	-0.178
90.55	36.97	-0.178
90.57	37.12	-0.178
90.60	37.27	-0.178
90.63	37.40	-0.178
90.66	37.57	-0.178
90.70	37.73	-0.178
90.73	37.88	-0.178
90.75	38.02	-0.178
90.78	38.17	-0.178
90.81	38.32	-0.178
90.85	38.48	-0.178
90.86	38.57	-0.178
90.90	38.78	-0.178
90.93	38.92	-0.178
90.96	39.07	-0.178
90.99	39.21	-0.178
91.02	39.33	-0.179
91.05	39.51	-0.179
91.08	39.66	-0.179
91.12	39.83	-0.179
91.14	39.97	-0.179
91.17	40.12	-0.179
91.20	40.26	-0.179
91.23	40.39	-0.179
91.27	40.58	-0.179
91.29	40.72	-0.179
91.33	40.89	-0.179
91.35	41.03	-0.179
91.38	41.17	-0.179
91.42	41.34	-0.179
91.44	41.44	-0.179
91.47	41.62	-0.179
91.50	41.77	-0.179
91.53	41.91	-0.179
91.55	42.02	-0.179
91.60	42.23	-0.179
91.63	42.38	-0.179
91.65	42.52	-0.179
91.68	42.64	-0.179
91.71	42.82	-0.179
91.74	42.95	-0.179
91.78	43.14	-0.179
91.80	43.28	-0.179
91.83	43.41	-0.179
91.86	43.55	-0.179
91.89	43.70	-0.179
91.92	43.87	-0.179
91.95	43.99	-0.179
91.98	44.16	-0.179
92.01	44.33	-0.179
92.04	44.47	-0.179
92.07	44.62	-0.179
92.10	44.75	-0.179
92.13	44.92	-0.179
92.16	45.08	-0.179
92.19	45.20	-0.179
92.22	45.35	-0.179
92.25	45.50	-0.179
92.28	45.64	-0.179
92.32	45.84	-0.179
92.35	45.98	-0.179
92.38	46.13	-0.179
92.40	46.26	-0.179
92.44	46.45	-0.179
92.46	46.56	-0.179
92.49	46.72	-0.179
92.52	46.85	-0.179
92.54	46.97	-0.179
92.59	47.18	-0.179
92.62	47.35	-0.179
92.64	47.47	-0.179
92.68	47.66	-0.179
92.71	47.80	-0.179
92.73	47.92	-0.179
92.76	48.07	-0.179
92.80	48.23	-0.179
92.82	48.37	-0.179
92.85	48.51	-0.179
92.89	48.68	-0.179
92.91	48.83	-0.179
92.94	48.97	-0.179
92.98	49.14	-0.179
93.00	49.28	-0.179
93.04	49.46	-0.179
93.06	49.57	-0.179
93.09	49.72	-0.179
93.13	49.90	-0.179
93.15	49.98	-0.179
93.18	50.17	-0.179
93.22	50.35	-0.179
93.24	50.45	-0.179
93.28	50.63	-0.180
93.30	50.77	-0.180
93.34	50.94	-0.180
93.36	51.04	-0.180
93.39	51.22	-0.180
93.42	51.37	-0.180
93.46	51.54	-0.180
93.49	51.68	-0.180
93.51	51.82	-0.180
93.55	52.01	-0.180
93.57	52.10	-0.180
93.60	52.28	-0.180
93.64	52.44	-0.180
93.66	52.54	-0.180
93.70	52.73	-0.180
93.72	52.87	-0.180
93.76	53.05	-0.180
93.78	53.17	-0.180
93.82	53.34	-0.180
93.85	53.48	-0.180
93.86	53.55	-0.180
93.90	53.78	-0.180
93.93	53.89	-0.180
93.96	54.08	-0.180
93.99	54.22	-0.180
94.02	54.37	-0.180
94.06	54.56	-0.180
94.09	54.69	-0.180
94.10	54.78	-0.180
94.14	54.94	-0.180
94.17	55.10	-0.180
94.20	55.28	-0.180
94.22	55.38	-0.180
94.27	55.60	-0.180
94.30	55.74	-0.180
94.32	55.88	-0.180
94.36	56.05	-0.180
94.38	56.18	-0.180
94.44	56.48	-0.180
94.41	56.29	-0.180
94.47	56.60	-0.180
94.50	56.79	-0.180
94.54	56.94	-0.180
94.56	57.09	-0.180
94.59	57.21	-0.180
94.62	57.37	-0.180
94.64	57.47	-0.180
94.69	57.71	-0.180
94.71	57.81	-0.180
94.74	57.98	-0.180
94.77	58.13	-0.180
94.80	58.29	-0.180
94.83	58.43	-0.180
94.87	58.62	-0.180
94.88	58.68	-0.180
94.92	58.88	-0.180
94.96	59.05	-0.180
94.98	59.17	-0.180
95.01	59.32	-0.180
95.05	59.49	-0.180
95.07	59.61	-0.180
95.10	59.78	-0.180
95.13	59.91	-0.180
95.17	60.10	-0.180
95.20	60.27	-0.180
95.22	60.37	-0.180
95.25	60.52	-0.180
95.28	60.68	-0.180
95.31	60.84	-0.181
95.35	60.99	-0.181
95.37	61.10	-0.181
95.40	61.28	-0.181
95.43	61.41	-0.181
95.47	61.60	-0.181
95.49	61.73	-0.181
95.53	61.90	-0.181
95.54	61.97	-0.181
95.58	62.17	-0.181
95.61	62.31	-0.181
95.65	62.50	-0.181
95.68	62.66	-0.181
95.71	62.81	-0.181
95.74	62.94	-0.181
95.77	63.10	-0.181
95.82	63.35	-0.181
95.78	63.17	-0.181
95.84	63.47	-0.181
95.88	63.68	-0.181
95.91	63.83	-0.181
95.94	63.94	-0.181
95.97	64.11	-0.181
96.01	64.30	-0.181
96.02	64.38	-0.181
96.06	64.58	-0.181
96.09	64.73	-0.181
96.12	64.87	-0.181
96.16	65.05	-0.181
96.19	65.20	-0.181
96.21	65.32	-0.181
96.24	65.48	-0.181
96.28	65.66	-0.181
96.30	65.79	-0.181
96.33	65.92	-0.181
96.36	66.05	-0.181
96.40	66.26	-0.181
96.43	66.39	-0.181
96.45	66.53	-0.181
96.48	66.68	-0.181
96.51	66.83	-0.181
96.55	67.02	-0.181
96.57	67.12	-0.181
96.61	67.31	-0.181
96.64	67.44	-0.181
96.66	67.58	-0.181
96.69	67.71	-0.181
96.70	67.78	-0.181
96.75	68.00	-0.181
96.78	68.17	-0.181
96.81	68.32	-0.181
96.84	68.47	-0.181
96.86	68.59	-0.181
96.90	68.78	-0.181
96.94	68.95	-0.182
96.95	69.04	-0.182
97.00	69.24	-0.182
97.01	69.33	-0.182
97.05	69.54	-0.182
97.09	69.70	-0.182
97.11	69.84	-0.182
97.14	69.98	-0.182
97.17	70.12	-0.182
97.21	70.34	-0.182
97.24	70.45	-0.182
97.27	70.60	-0.182
97.30	70.74	-0.182
97.33	70.89	-0.182
97.35	71.04	-0.182
97.38	71.19	-0.182
97.41	71.33	-0.182
97.44	71.46	-0.182
97.47	71.64	-0.182
97.50	71.75	-0.182
97.53	71.91	-0.182
97.56	72.09	-0.182
97.59	72.22	-0.182
97.62	72.39	-0.182
97.65	72.50	-0.182
97.68	72.69	-0.182
97.71	72.84	-0.182
97.74	72.95	-0.182
97.78	73.16	-0.182
97.80	73.27	-0.182
97.84	73.46	-0.182
97.86	73.58	-0.182
97.90	73.75	-0.182
97.93	73.90	-0.182
97.95	74.03	-0.182
97.99	74.21	-0.182
98.00	74.30	-0.182
98.05	74.54	-0.182
98.11	74.84	-0.182
98.08	74.67	-0.182
98.13	74.93	-0.182
98.16	75.10	-0.182
98.19	75.23	-0.182
98.22	75.39	-0.182
98.25	75.52	-0.182
98.28	75.69	-0.182
98.31	75.81	-0.183
98.35	76.00	-0.183
98.35	76.03	-0.183
98.39	76.24	-0.183
98.44	76.45	-0.183
98.46	76.58	-0.183
98.49	76.74	-0.183
98.53	76.90	-0.183
98.55	77.05	-0.183
98.58	77.17	-0.183
98.61	77.31	-0.183
98.65	77.50	-0.183
98.67	77.64	-0.183
98.71	77.82	-0.183
98.74	77.95	-0.183
98.76	78.10	-0.183
98.79	78.24	-0.183
98.82	78.39	-0.183
98.86	78.58	-0.183
98.89	78.70	-0.183
98.91	78.82	-0.183
98.95	79.01	-0.183
98.97	79.14	-0.183
99.00	79.27	-0.183
99.03	79.43	-0.183
99.06	79.60	-0.183
99.10	79.76	-0.183
99.12	79.89	-0.183
99.15	80.04	-0.183
99.19	80.20	-0.183
99.22	80.38	-0.183
99.25	80.50	-0.183
99.28	80.65	-0.183
99.31	80.81	-0.183
99.33	80.92	-0.183
99.37	81.12	-0.183
99.39	81.24	-0.183
99.41	81.35	-0.183
99.45	81.53	-0.183
99.50	81.78	-0.183
99.56	82.08	-0.183
99.52	81.87	-0.183
99.58	82.17	-0.183
99.60	82.30	-0.183
99.64	82.45	-0.183
99.66	82.60	-0.183
99.69	82.73	-0.183
99.71	82.81	-0.183
99.75	83.02	-0.184
99.79	83.21	-0.184
99.81	83.34	-0.184
99.84	83.47	-0.184
99.88	83.67	-0.184
99.91	83.81	-0.184
99.93	83.93	-0.184
99.95	84.04	-0.184
99.99	84.23	-0.184
100.03	84.40	-0.184
100.05	84.51	-0.184
100.09	84.71	-0.184
100.11	84.84	-0.184
100.14	84.97	-0.184
100.17	85.13	-0.184
100.20	85.26	-0.184
100.23	85.42	-0.184
100.26	85.59	-0.184
100.30	85.75	-0.184
100.33	85.92	-0.184
100.34	85.99	-0.184
100.39	86.22	-0.184
100.41	86.34	-0.184
100.44	86.49	-0.184
100.47	86.62	-0.184
100.50	86.76	-0.184
100.54	86.99	-0.184
100.57	87.11	-0.184
100.59	87.24	-0.184
100.62	87.37	-0.184
100.65	87.54	-0.184
100.68	87.69	-0.184
100.71	87.85	-0.184
100.75	88.01	-0.184
100.77	88.11	-0.184
100.80	88.29	-0.184
100.83	88.42	-0.184
100.87	88.61	-0.184
100.89	88.74	-0.184
100.93	88.91	-0.184
100.95	89.01	-0.184
100.98	89.15	-0.184
101.02	89.36	-0.184
101.05	89.50	-0.184
101.08	89.66	-0.184
101.11	89.81	-0.184
101.13	89.95	-0.184
101.16	90.09	-0.184
101.19	90.24	-0.184
101.23	90.40	-0.184
101.25	90.52	-0.184
101.28	90.67	-0.184
101.30	90.80	-0.184
101.34	90.95	-0.184
101.37	91.14	-0.184
101.40	91.25	-0.184
101.43	91.45	-0.184
101.47	91.61	-0.184
101.50	91.76	-0.184
101.52	91.87	-0.184
101.56	92.06	-0.184
101.58	92.16	-0.184
101.62	92.36	-0.184
101.64	92.45	-0.184
101.68	92.66	-0.184
101.70	92.78	-0.184
101.74	92.95	-0.184
101.77	93.12	-0.184
101.79	93.20	-0.184
101.82	93.36	-0.184
101.86	93.57	-0.184
101.89	93.71	-0.184
101.91	93.84	-0.184
101.95	94.02	-0.184
101.98	94.17	-0.184
102.00	94.30	-0.184
102.03	94.45	-0.184
102.07	94.61	-0.184
102.10	94.76	-0.184
102.12	94.87	-0.184
102.14	95.00	-0.184
102.18	95.17	-0.184
102.21	95.36	-0.184
102.25	95.51	-0.184
102.28	95.66	-0.184
102.31	95.81	-0.184
102.33	95.92	-0.184
102.38	96.17	-0.184
102.44	96.47	-0.184
102.40	96.31	-0.184
102.46	96.61	-0.184
102.49	96.71	-0.185
102.51	96.84	-0.185
102.55	97.01	-0.185
102.58	97.17	-0.185
102.60	97.31	-0.185
102.63	97.44	-0.185
102.66	97.57	-0.185
102.70	97.77	-0.185
102.72	97.89	-0.185
102.75	98.02	-0.185
102.78	98.20	-0.185
102.81	98.35	-0.185
102.85	98.52	-0.185
102.88	98.66	-0.185
102.91	98.81	-0.185
102.93	98.91	-0.185
102.97	99.13	-0.186
102.99	99.23	-0.186
103.03	99.40	-0.186
103.05	99.52	-0.186
103.09	99.70	-0.186
103.11	99.84	-0.186
103.14	99.99	-0.187
103.18	100.17	-0.187
103.19	100.21	-0.187
103.23	100.41	-0.187
103.26	100.59	-0.187
103.30	100.76	-0.188
103.33	100.90	-0.188
103.35	101.01	-0.188
103.38	101.20	-0.188
103.41	101.36	-0.188
103.44	101.48	-0.188
103.48	101.67	-0.188
103.50	101.81	-0.188
103.52	101.90	-0.188
103.56	102.09	-0.188
103.60	102.26	-0.188
103.62	102.37	-0.188
103.65	102.54	-0.187
103.69	102.71	-0.187
103.71	102.86	-0.187
103.74	103.00	-0.187
103.78	103.18	-0.187
103.80	103.26	-0.187
103.83	103.43	-0.187
103.86	103.61	-0.187
103.89	103.75	-0.187
103.92	103.88	-0.187
103.95	104.03	-0.186
103.98	104.20	-0.186
104.02	104.38	-0.186
104.04	104.48	-0.186
104.08	104.68	-0.186
104.10	104.80	-0.186
104.13	104.94	-0.186
104.17	105.13	-0.186
104.19	105.24	-0.186
104.23	105.41	-0.186
104.25	105.56	-0.186
104.28	105.66	-0.186
104.32	105.89	-0.186
104.35	106.01	-0.186
104.38	106.18	-0.186
104.40	106.31	-0.186
104.43	106.44	-0.186
104.47	106.62	-0.186
104.49	106.75	-0.186
104.53	106.92	-0.186
104.55	107.04	-0.186
104.59	107.21	-0.186
104.61	107.36	-0.187
104.65	107.51	-0.187
104.67	107.65	-0.187
104.71	107.83	-0.187
104.73	107.94	-0.187
104.76	108.11	-0.187
104.80	108.26	-0.187
104.82	108.40	-0.187
104.85	108.56	-0.187
104.89	108.72	-0.187
104.92	108.90	-0.187
104.98	109.20	-0.187
104.95	109.06	-0.187
105.00	109.31	-0.187
105.03	109.42	-0.187
105.07	109.62	-0.187
105.09	109.71	-0.187
105.13	109.93	-0.187
105.15	110.05	-0.187
105.19	110.24	-0.187
105.21	110.36	-0.187
105.25	110.52	-0.187
105.27	110.65	-0.187
105.30	110.78	-0.187
105.34	110.96	-0.187
105.36	111.11	-0.187
105.40	111.26	-0.187
105.43	111.42	-0.187
105.45	111.53	-0.187
105.48	111.70	-0.187
105.51	111.84	-0.187
105.54	112.00	-0.187
105.57	112.15	-0.187
105.60	112.30	-0.187
105.64	112.46	-0.187
105.66	112.60	-0.187
105.69	112.75	-0.187
105.73	112.91	-0.187
105.75	113.04	-0.187
105.79	113.21	-0.187
105.81	113.36	-0.187
105.84	113.50	-0.187
105.86	113.57	-0.187
105.90	113.78	-0.187
105.93	113.95	-0.187
105.97	114.12	-0.187
106.00	114.28	-0.187
106.03	114.41	-0.187
106.05	114.54	-0.187
106.09	114.72	-0.187
106.11	114.84	-0.187
106.15	115.03	-0.187
106.18	115.17	-0.188
106.20	115.30	-0.188
106.24	115.47	-0.188
106.26	115.61	-0.188
106.29	115.74	-0.188
106.31	115.86	-0.188
106.35	116.05	-0.188
106.36	116.11	-0.188
106.41	116.36	-0.188
106.44	116.51	-0.188
106.47	116.63	-0.188
106.50	116.81	-0.188
106.53	116.91	-0.188
106.56	117.10	-0.188
106.59	117.24	-0.188
106.63	117.42	-0.188
106.65	117.56	-0.188
106.68	117.68	-0.188
106.72	117.88	-0.188
106.75	118.02	-0.188
106.78	118.17	-0.188
106.80	118.27	-0.188
106.84	118.49	-0.188
106.87	118.66	-0.188
106.88	118.68	-0.188
106.92	118.89	-0.188
106.94	119.01	-0.188
106.98	119.18	-0.188
107.00	119.30	-0.188